time,seconds_elapsed,z,y,x
1679441213436924700,0.018924560546875,0.3290641965836286,0.3105500502496958,0.36310821274369953
1679441213446897000,0.02889697265625,0.6594897446483373,0.1127776533961296,0.23904987139850853
1679441213456868900,0.038868896484375,0.97539810706079,-0.007255085694789886,0.22543065749928354
1679441213466841000,0.048841064453125,1.328347037100792,-0.02878478045761585,0.36896336851269007
1679441213476812800,0.058812744140625,1.6001684205055235,0.07774550298154354,0.636151539158821
1679441213486785000,0.068784912109375,1.710003590708971,0.1761813272923231,0.8289908635243773
1679441213496756700,0.0787568359375,1.606247448158264,0.19615093313157558,0.8705426249660551
1679441213506729000,0.08872900390625,1.6170622721612453,0.24904665701687334,0.7892927671253681
1679441213516702000,0.098701904296875,1.5468950954794882,0.24378771357536314,0.7848940937750041
1679441213526674000,0.108673828125,1.433551624894142,0.1942722797781229,0.6556687250554561
1679441213536646000,0.11864599609375,1.0695558156609535,-0.023927403554320333,0.2393073532909155
1679441213546618000,0.1286181640625,0.362941331744194,-0.29165070399045945,-0.12023732175230979
1679441213556589800,0.13858984375,-0.33289749113619327,-0.3616811025500297,-0.40875878780633207
1679441213566562000,0.14856201171875,-0.8276607839643955,-0.32797990847826003,-0.6580798778504133
1679441213576533800,0.15853369140625,-1.219609599006176,-0.28044191223382947,-0.800669316664338
1679441213586506000,0.168506103515625,-1.3814783233076333,-0.11851999644041061,-0.8234507650539279
1679441213596478000,0.17847802734375,-1.2689157739669084,0.04169569995701313,-0.6906662425480783
1679441213606450000,0.188449951171875,-1.1033803438514471,0.25849662240743637,-0.4304804980099201
1679441213616422000,0.198421875,-1.0919576170831917,0.35587738470733166,-0.23599267578497526
1679441213626393900,0.208393798828125,-0.9884528189450502,0.3516080368250608,-0.16169892069250344
1679441213636366800,0.218366943359375,-0.6476356407254934,0.31439854237139225,-0.11866072008535265
1679441213646338800,0.2283388671875,-0.35821664130985736,0.22902093707621096,-0.138186673810333
1679441213656310800,0.238310791015625,-0.16107845070660112,0.10966741242110728,-0.19131167640686034
1679441213666283000,0.248282958984375,0.004212649258971214,-0.006297638839483261,-0.160800802809
1679441213676255000,0.2582548828125,-0.027332243561744688,-0.04843406830132007,-0.12327990431860089
1679441213686227000,0.26822705078125,-0.22047581157088278,-0.06700023708343505,-0.12895838834643364
1679441213696199000,0.278198974609375,-0.2286269693225622,-0.09668342768549919,-0.045492608021944755
1679441213706171000,0.2881708984375,-0.15248071823120116,-0.10641747071444987,0.07926292180716991
1679441213716142800,0.298142822265625,0.013515315133333206,-0.1012795233041048,0.1577304554529488
1679441213726115000,0.308114990234375,0.16763620178699493,-0.14064414996504782,0.20723171459436415
1679441213736086800,0.318086669921875,0.20209610527157781,-0.13678279836177826,0.2620078453987837
1679441213746059800,0.328059814453125,0.1245592766046524,-0.09700842185616493,0.26797844424098727
1679441213756032000,0.338031982421875,0.10025485643148421,-0.07324760704040527,0.25303981830626726
1679441213766004000,0.34800390625,-0.03804652979969978,-0.08310556870996952,0.1184834638223052
1679441213775976000,0.357975830078125,-0.2630266670525074,-0.03626724516749382,-0.03424640686437488
1679441213785948000,0.367947998046875,-0.3229021668225527,-0.018213117560744285,-0.0769715959995985
1679441213795920000,0.377919921875,-0.28457798912525173,-0.07785130144357681,-0.15225976895689963
1679441213805892000,0.38789208984375,-0.27104981451034543,-0.13838088120818137,-0.3461431955479085
1679441213815863800,0.39786376953125,-0.2717664383471012,-0.12046060911417007,-0.38056408219635485
1679441213825836000,0.4078359375,-0.30905075160264966,-0.07719780597090721,-0.3693970837548375
1679441213835807700,0.417807861328125,-0.4100239854365587,-0.015315642553567885,-0.2764424673341214
1679441213845780000,0.427780029296875,-0.5028402162998914,0.13508359322845934,-0.12340733009055256
1679441213855753000,0.4377529296875,-0.46134851448237896,0.22759762627482413,0.02097527575045824
1679441213865725000,0.447724853515625,-0.17648294058740138,0.2223655708402395,0.13026201829090714
1679441213875697000,0.45769677734375,0.1572942559927702,0.15683423726558685,0.13727350448817013
1679441213885669000,0.467669189453125,0.35914953824579715,-0.003146481332182884,-0.08669599441736936
1679441213895640800,0.477640869140625,0.34658699379265306,-0.12745616708993912,-0.20698563087880611
1679441213905613000,0.487613037109375,0.244927531260252,-0.09423954166471958,-0.2053869635105133
1679441213915584800,0.497584716796875,0.12178747380375861,-0.05885317098498344,-0.220100548517704
1679441213925557000,0.507556884765625,-0.04276771310269832,-0.03294657631218433,-0.21591595630943775
1679441213935529000,0.517529052734375,-0.23562252729833125,0.060067807471752166,-0.16721330019980668
1679441213945501000,0.5275009765625,-0.2722901699602604,0.1508937413007021,-0.024788696558773516
1679441213955473000,0.537472900390625,-0.20666589740514754,0.18119301797449588,0.0416455772049725
1679441213965444900,0.54744482421875,-0.10403905114531517,0.15187632259726525,0.04855214172303676
1679441213975417900,0.55741796875,0.007556698989868164,0.024238953721523283,-0.07935089235156774
1679441213985389800,0.567389892578125,0.1484621302396059,-0.15064707306325434,-0.22678031854256986
1679441213995361800,0.57736181640625,0.2128764424830675,-0.13307926766872405,-0.240237035356462
1679441214005334000,0.587333984375,0.28252631729245187,-0.10080839866101741,-0.19001403781175613
1679441214015306000,0.597305908203125,0.33235856195390223,-0.08541326113045215,-0.178115510225296
1679441214025278000,0.60727783203125,0.2561708098083734,-0.04739537290334701,-0.19016367541551588
1679441214035250000,0.61725,0.20733985114395617,-0.03169394590258598,-0.1685372422799468
1679441214045222000,0.627221923828125,0.11016133341789244,0.0018085107266902923,-0.15009353083372115
1679441214055193900,0.63719384765625,-0.06415829165577888,-0.01263502516746521,-0.24576661243289707
1679441214065166000,0.647166015625,-0.20208909100890157,-0.04930383687317371,-0.282597775093466
1679441214075137800,0.6571376953125,-0.21759821030795573,0.0318850845605135,-0.2262634550616145
1679441214085110800,0.66711083984375,-0.04560907400846481,0.14221125315129757,-0.006514934851974248
1679441214095083000,0.6770830078125,0.1666869382381439,0.16787117958664893,0.1503375687226653
1679441214105055000,0.687054931640625,0.3357493734359741,0.07870821053385733,0.11520108115077018
1679441214115027000,0.69702685546875,0.33855858563780783,0.008201426634192465,0.015690321084856986
1679441214124999000,0.7069990234375,0.30129706873595713,0.009061258333921431,-0.0018798223972320556
1679441214134971000,0.716970947265625,0.22908640352785586,0.008687164324522018,-0.020621932268142698
1679441214144943000,0.726943115234375,0.2589619018316269,0.00708674339056015,-0.007917348995804787
1679441214154914800,0.736914794921875,0.2655406957000494,-0.011797405299544334,0.0772571349427104
1679441214164887000,0.746886962890625,0.2157435223519802,-0.04713233805298805,0.09921353068500757
1679441214174858800,0.756858642578125,0.10595628294348716,-0.03345511035621166,0.1174877307832241
1679441214184831000,0.7668310546875,-0.026461305946111676,0.04172083439826965,0.18787702578306198
1679441214194803000,0.776802978515625,0.042565468528866765,0.028251111972332,0.17336977700293063
1679441214204776000,0.78677587890625,0.2363648700982332,-0.07830138329863548,0.05401917495727539
1679441214214748000,0.796747802734375,0.3986439287662506,-0.1376519824117422,-0.05248977343291044
1679441214224720100,0.80672021484375,0.23427169721126556,-0.19387831202447414,-0.11669935688450932
1679441214234691800,0.81669189453125,-0.09798165080249309,-0.1305073713541031,-0.1221384791985154
1679441214244664000,0.8266640625,-0.36377661352455615,-0.04665419914722442,-0.03674216920286417
1679441214254635800,0.8366357421875,-0.526411061501503,0.055412675142288204,0.049837066967040294
1679441214264608000,0.84660791015625,-0.48091655378341674,0.24709435390532014,0.16276421183645726
1679441214274580000,0.856580078125,-0.16117898847162723,0.31876375184357164,0.24870047392770647
1679441214284552000,0.866552001953125,0.23722411727607248,0.29654665933847424,0.2780857044965029
1679441214294524000,0.87652392578125,0.6531465131014585,0.2740747152894735,0.20086349473670123
1679441214304495900,0.886495849609375,0.9071890787094831,0.06876549319028855,-0.14314765721857547
1679441214314468900,0.89646875,0.8451677990823984,-0.05936638120412826,-0.41344489979594945
1679441214324440800,0.90644091796875,0.6099485918879508,0.04595744905471801,-0.32426366443410515
1679441214334412800,0.916412841796875,0.4362368695795536,0.2657476164489984,-0.007012070719152688
1679441214344385000,0.926385009765625,0.5321294391483068,0.4603694403171539,0.3578179973810911
1679441214354357000,0.93635693359375,0.6446645159602165,0.652905105561018,0.559255638743937
1679441214364329000,0.946328857421875,0.8380623509913683,0.8160966028988361,0.7171602817200123
1679441214374301000,0.956301025390625,1.230118718060851,0.9102122259229422,0.753666596340388
1679441214384273000,0.96627294921875,1.7386860798358916,0.8867080162167549,0.5707765651896596
1679441214394244900,0.976244873046875,2.1658190209835766,0.7729752540528774,0.2657040695682168
1679441214404217000,0.986217041015625,2.4438521185100077,0.7502852833390236,0.2033632025979459
1679441214414188800,0.996188720703125,2.7224861045390365,0.9440618885546922,0.3112935620933771
1679441214424161000,1.0061611328125,2.8806127197027203,1.0243237582713365,0.28378128578960893
1679441214434134000,1.016134033203125,2.7085587014734744,1.1248697066038846,0.3388284886203706
1679441214444106000,1.02610595703125,2.376284310671687,1.5008978989362716,0.5365804272077977
1679441214454077700,1.03607763671875,2.109770970547199,1.8245868322223424,0.7245210197463631
1679441214464050000,1.0460498046875,2.056428671938181,2.0751982543379066,0.9056164225652813
1679441214474021600,1.056021728515625,2.1341239060372112,2.3737258583605287,1.115551258638501
1679441214483993900,1.065993896484375,2.43605225841403,2.6911890489995476,1.3565636622816324
1679441214493965800,1.0759658203125,2.7438965568363667,2.7756892869383094,1.323775783662498
1679441214503937800,1.085937744140625,2.9282541763216257,2.310893262350559,0.4464098885476589
1679441214513909800,1.09590966796875,2.8947359376013275,1.4230921902000904,-0.8554609372988343
1679441214523881700,1.1058818359375,3.0934692884415385,0.6265279707670212,-1.9624007271975277
1679441214533853700,1.115853759765625,2.7305419852226973,0.18319792805612087,-2.494898415136337
1679441214543827000,1.125826904296875,1.7844430378824472,0.1592769542425871,-2.2318521666005253
1679441214553798700,1.135798583984375,0.7158183655917644,0.495862193980813,-1.385589265757799
1679441214563771000,1.14577099609375,-0.19486673853993414,0.9855331321060657,-0.619864713485539
1679441214573742800,1.155742919921875,-0.7691343607157468,1.4767051224440335,-0.1604685021147132
1679441214583714800,1.16571484375,-1.0856693305939435,1.4225193587481975,-0.0028942601367831227
1679441214593686800,1.175686767578125,-0.9944108505666255,1.3939578656524418,0.39841742653399703
1679441214603658800,1.18565869140625,-0.2651186708956957,1.74924488325119,1.0441460645943879
1679441214613630700,1.195630615234375,1.1728940250605344,2.1456530157893896,1.4998065965682268
1679441214623603000,1.20560302734375,2.601432790228724,2.464562313583493,1.3994447726309298
1679441214633574700,1.21557470703125,2.9304028787881133,3.4298417622119186,1.0799901159137486
1679441214643547000,1.225546875,3.298513137602806,1.4930150367319583,-0.4031824489787221
1679441214653518600,1.2355185546875,2.957607112056017,0.06964110698103905,-1.1520780315250159
1679441214663491800,1.245491943359375,1.3583932157963514,1.1911375377595423,-0.30046763217449185
1679441214673463800,1.2554638671875,-0.32878771772980686,3.0675761377722024,0.6465116051316261
1679441214683435800,1.265435791015625,-0.9940689052611589,4.41202558389008,1.609718339139223
1679441214693407700,1.27540771484375,-1.2910077787876129,5.120222368562221,2.2238789957642555
1679441214703380000,1.2853798828125,-0.6794014828205108,5.668920665195584,2.515838327312469
1679441214713351700,1.2953515625,0.6879226429283618,6.000984628117084,2.6458283967941996
1679441214723324000,1.305323974609375,2.2601813122451304,5.727742271998524,2.027533416843414
1679441214733295600,1.315295654296875,3.297343509301543,5.307198646113276,1.1704343569487332
1679441214743267800,1.325267822265625,3.203442990332842,5.1182116132617,0.9221259510785341
1679441214753239800,1.33523974609375,1.9896941000536084,5.048614929944277,0.22248598234951494
1679441214763211800,1.345211669921875,0.2222641562923789,5.225314143630862,-0.8707277722746133
1679441214773184800,1.355184814453125,-1.8634853026762603,5.5850902893424035,-1.3260142102390526
1679441214783157000,1.365156982421875,-3.4198926151275635,6.4871607098639,-0.9366980817884206
1679441214793128700,1.375128662109375,-3.5561209944769736,7.560991718626022,-0.2007078657835722
1679441214803101000,1.385100830078125,-2.891346879684925,8.217025185340642,0.5621528214901685
1679441214813072600,1.39507275390625,-1.1470702863655984,8.538653678965568,1.4129887293368577
1679441214823044900,1.405044921875,1.4339268879473208,8.106375191622972,1.7181547484606503
1679441214833016800,1.415016845703125,3.068222034460306,7.250216042926907,1.0401315682560204
1679441214842988800,1.42498876953125,3.184716078031063,6.390028953889012,-0.2624117500245571
1679441214852960800,1.434960693359375,2.4945377651304006,5.897013381510972,-1.186869358921051
1679441214862932700,1.4449326171875,1.4725240373671054,5.7691065480440855,-2.3099223714917896
1679441214872904700,1.45490478515625,-0.41769875784814353,5.136418885603547,-4.361568485328555
1679441214882877000,1.464876953125,-2.5183541095256805,4.223263591966033,-5.343199933820963
1679441214892849700,1.474849609375,-3.428143726122379,3.77076181628406,-6.294193082943559
1679441214902822000,1.48482177734375,-3.166712803828716,3.2378771748542783,-6.696516577005386
1679441214912793900,1.4947939453125,-2.037498346018791,2.599156077468395,-6.248119314032793
1679441214922765800,1.504765869140625,-1.0402513952434063,2.6261206567615267,-5.709281901678443
1679441214932737800,1.51473779296875,0.12014957040362059,2.4634514297321437,-6.113800275436043
1679441214942709800,1.524709716796875,1.1032311446391045,1.0123162173524498,-7.6560016601413485
1679441214952681700,1.534681640625,1.3256301793575287,-0.700419720929861,-8.994100860449672
1679441214962654000,1.544654052734375,1.5054535164140164,-1.8593971565797924,-9.612937692192196
1679441214972625700,1.554625732421875,1.678377595476061,-2.7653663381054994,-10.011141475975514
1679441214982598000,1.564597900390625,1.081769838937372,-3.62147755600661,-10.201662878787516
1679441214992569600,1.574569580078125,0.14049348944798112,-4.090543512998521,-10.13817211112976
1679441215002542800,1.58454296875,0.2657972277443856,-4.325270552761853,-9.36363501458764
1679441215012514800,1.594514892578125,1.0457141906939447,-4.545888110890984,-8.363009527289867
1679441215022486800,1.60448681640625,2.08916072871685,-4.887808866438269,-7.636037899520993
1679441215032458800,1.614458740234375,3.425523899012804,-5.207720619273186,-6.801499631002545
1679441215042431000,1.624430908203125,4.51680171713829,-5.634577081567048,-6.462465829068422
1679441215052402700,1.634402587890625,5.113491014480591,-6.5152867341518395,-6.5074436194360255
1679441215062375000,1.644375,5.059324540007114,-7.4881655518680805,-6.399996221151947
1679441215072346600,1.6543466796875,4.659570019650459,-7.498394684937596,-5.612545282500982
1679441215082318800,1.66431884765625,3.9926691219627855,-6.548515050014853,-4.561758464717864
1679441215092290800,1.674290771484375,3.0551474488317965,-5.80539074434638,-3.4701094751924275
1679441215102262800,1.6842626953125,2.5391432150542737,-5.256348164319991,-2.4810990223646163
1679441215112235800,1.69423583984375,3.2616894275963304,-4.816589550355077,-2.0875877803117038
1679441215122208000,1.7042080078125,5.364405218935013,-5.090810980638861,-2.3136188879221677
1679441215132179700,1.7141796875,6.587351853409409,-5.024309925249218,-2.582272162684798
1679441215142152000,1.72415185546875,5.72506633078754,-3.7414702553480863,-1.7336118453115223
1679441215152123600,1.73412353515625,3.8390503396123647,-2.298776708099246,-0.16553543011546135
1679441215162095900,1.744095947265625,2.565395846685767,-1.3195055589973925,0.8852952268093824
1679441215172067800,1.75406787109375,1.9152999533265829,-0.41395489514470096,1.1848930904120205
1679441215182039800,1.764039794921875,2.400591068932414,0.5348936431646347,1.6156979980707167
1679441215192011800,1.77401171875,2.968677372124791,1.685415092897415,2.287599480524659
1679441215201983700,1.783983642578125,2.9664684639036656,2.2116183568671346,2.873837526479363
1679441215211955700,1.793955810546875,2.1939210798740385,2.2106202857404944,2.674092368248105
1679441215221929000,1.803928955078125,0.7091226673454046,2.033063286180794,1.4759680403411388
1679441215231900700,1.813900634765625,-0.17078790728356688,1.8949559612169862,0.3059241440147161
1679441215241873000,1.823872802734375,-0.4693354215830564,1.7708318611592053,-0.5068137961059809
1679441215251844900,1.833844970703125,-0.3951572556942701,1.7025728561863303,-0.7058633732885122
1679441215261816800,1.84381689453125,0.4591285003453493,1.365143566839397,-0.5872141975104809
1679441215271788800,1.853788818359375,0.7140683070540428,0.7187894903570413,-0.8036264129042625
1679441215281760800,1.8637607421875,0.7022013436496257,0.6586497866928577,-0.8384154022127389
1679441215291732700,1.873732666015625,0.7379489488571882,0.3498500872418284,-0.28020518086850643
1679441215301705000,1.883705078125,-0.10581015247106551,0.6688593382790684,-0.15645780516862867
1679441215311676700,1.8936767578125,0.5143232218880206,0.456982428227365,0.398695366692543
1679441215321649000,1.90364892578125,1.1998323008686302,-0.3301867708727717,0.794170017772913
1679441215331620600,1.91362060546875,2.698771466952562,-0.8464578388929367,0.9858592953205108
1679441215341593900,1.92359375,2.85536137406826,-1.1822025361537933,1.9663228690773247
1679441215351565800,1.93356591796875,0.27137188607156276,-0.5253901940211654,0.05700374372601509
1679441215361537800,1.943537841796875,-1.9745827479004858,0.04376081579327583,-2.110614435634017
1679441215371509800,1.953509765625,-2.2746254326611757,-1.4945730798289178,-1.1950608486831187
1679441215381482000,1.96348193359375,-2.42228910599947,-2.748670347109437,-0.13263561555445194
1679441215391453700,1.97345361328125,-1.9359049344599246,-2.866006686723232,-0.0006570026040077209
1679441215401426000,1.983426025390625,-2.7139105838954447,-2.3960069560125468,-0.7290583709150552
1679441215411397600,1.993397705078125,-4.156082153096794,-1.5037372140154242,-1.2019716509848832
1679441215421369900,2.003369873046875,-4.946800569111108,-1.1960445990234612,-0.8809481375157833
1679441215431341800,2.013341796875,-4.132157087630033,-0.9271575155049562,-0.10681669916510582
1679441215441313800,2.023313720703125,-2.784030998826027,-0.24823007993698118,0.44662499260306354
1679441215451286800,2.033286865234375,-1.9004536818504332,0.0815904879719019,0.7118406941324472
1679441215461260300,2.04326025390625,-1.2319587929695843,-0.11213847870975732,0.9631371759027242
1679441215471232500,2.053232421875,-0.23102990227844564,-0.5022846282437443,0.791743667408824
1679441215481204500,2.06320458984375,0.7555939111411571,-0.8036822347447276,-0.04324935913980007
1679441215491176400,2.073176513671875,1.2552519902735948,-0.6787357123881578,-1.0862684655308723
1679441215501148400,2.0831484375,1.415276548013091,-0.17137071214020252,-1.3318430625230073
1679441215511120400,2.093120361328125,1.319870300656557,0.6819348006904125,-1.0843436349481343
1679441215521092400,2.10309228515625,1.2487941924363375,1.242914779008925,-0.5337222612977027
1679441215531064600,2.113064697265625,1.4905711507111787,0.6253817233413458,-0.07584113066494465
1679441215541036300,2.123036376953125,2.1674876848481595,-0.48051294141858814,0.2831979329437017
1679441215551008500,2.133008544921875,2.180031086209416,-0.502656384165585,0.8072486950546502
1679441215560980200,2.142980224609375,1.5624351944386958,0.5041457459405064,1.6653022791951895
1679441215570953500,2.152953369140625,0.88778002936244,1.2263672565728425,1.8456629379987715
1679441215580925400,2.162925537109375,0.23894348841458557,1.8056287415131926,1.3717068708777427
1679441215590897400,2.1728974609375,0.055845805862545964,2.2983710499078036,1.0120832853794097
1679441215600869400,2.182869384765625,0.34917116506695745,2.0285943240731954,0.5276461562544107
1679441215610841300,2.19284130859375,0.44971616355143484,1.6513380512505769,0.3402899394750595
1679441215620813300,2.202813232421875,0.03134206372499466,1.6668951013445854,-0.17990765433907507
1679441215630785500,2.21278564453125,-0.19532325013577936,1.3869514940217136,-0.7438210557609796
1679441215640757200,2.22275732421875,0.41382630032896994,0.8563701610982417,-0.9976730672329663
1679441215650729500,2.2327294921875,0.738059423494339,0.48461949995458126,-0.37847792357206345
1679441215660701200,2.242701171875,0.5239794504404067,0.33701194071769713,0.03860708629190922
1679441215670673400,2.25267333984375,0.26990648969411846,0.32645079921483994,0.39157998172938824
1679441215680646400,2.262646484375,0.12949556396305562,0.8104477833569049,0.7338111184000968
1679441215690618400,2.272618408203125,-0.35581557151749726,1.3642504173919558,0.4450760095953941
1679441215700590300,2.28259033203125,-0.21007366002202033,1.2712211282998322,-0.571165564507246
1679441215710562600,2.2925625,0.11185593544133007,0.9388751335665583,-1.1831950543224812
1679441215720534300,2.3025341796875,0.10794774902164936,0.12279022110551595,-1.5019009384989737
1679441215730506500,2.312506591796875,0.16124328587949274,-0.32073505191653967,-1.9939754306346178
1679441215740478200,2.322478271484375,0.29693543946035206,-0.3488099305391311,-1.9357757551223038
1679441215750450400,2.332450439453125,0.11091193258948623,-0.22302520379275081,-1.3655682219922542
1679441215760422400,2.34242236328125,-0.0005324263762682676,-0.13483371012061834,-1.089254787865281
1679441215770394400,2.352394287109375,-0.4549578635971993,0.15171587133854628,-0.29917174714505673
1679441215780366300,2.362366455078125,-1.1626719062536954,0.7659165677130222,0.30842355961501594
1679441215790339600,2.372339599609375,-0.878209067940712,1.0685022149547934,0.30696108584702014
1679441215800311300,2.382311279296875,-0.5686919409353286,1.101605150872469,0.043484921461343765
1679441215810283500,2.392283447265625,-0.458997055985406,1.24929278960824,-0.5485860684305429
1679441215820255200,2.402255126953125,0.01213701251745224,1.127513499110937,-0.7668366051673888
1679441215830227500,2.4122275390625,-0.12948796517848968,0.6104466045379638,-0.47051557127833366
1679441215840199400,2.422199462890625,-0.14745843308977782,0.6666358170107006,-0.18510113132894038
1679441215850171400,2.43217138671875,1.5517079025886953,0.4023752242490649,-0.03980769425332546
1679441215860143400,2.442143310546875,2.3378642713844773,-0.4760463173985481,0.06664601681828498
1679441215870115300,2.452115234375,1.686293629297614,-1.001429789417982,-0.14208499642312525
1679441215880087300,2.46208740234375,0.6249615251678973,-1.6212898267284035,-1.2333967168182134
1679441215890059500,2.4720595703125,-0.9561567424308508,-1.4327119591996074,-0.6265683027774095
1679441215900031200,2.48203125,-1.2350924148201943,-0.8203983917459845,-0.17381868981420992
1679441215910004500,2.49200439453125,-0.44999249627478416,0.018662907154858112,-0.04401332924962043
1679441215919976400,2.5019765625,0.9896282924652099,0.6131663848906755,0.9190747468143701
1679441215929948400,2.511948486328125,1.2640221567064522,1.3644818880602716,1.7226234183073044
1679441215939920400,2.52192041015625,0.4089215040873736,1.8261665026292204,2.1180589064210653
1679441215949892400,2.531892333984375,-0.5463754797089845,1.5399565283879637,1.898245942673087
1679441215959864300,2.5418642578125,0.1399655200511217,1.151993568111956,2.172512381142378
1679441215969836500,2.55183642578125,1.1512929455619305,0.695147333484888,3.263047856467962
1679441215979808300,2.561808349609375,1.7884078498601912,0.3084013477832079,4.037425963056087
1679441215989780500,2.571780517578125,1.211442659163475,0.767239048488438,4.5256209834098815
1679441215999752200,2.581752197265625,-0.2991986716846004,2.759347223946452,4.924462480574846
1679441216009724400,2.591724365234375,-0.306875782183744,4.594011505807936,1.9343997905939816
1679441216019697400,2.601697509765625,-0.05355621535433456,4.602391796140372,-1.1660849295675755
1679441216029669400,2.61166943359375,-3.5174504875600334,1.4952581394836306,-4.473447144058347
1679441216039641300,2.621641357421875,-5.89968581559062,-2.0727607980579137,-6.042689680424332
1679441216049613600,2.631613525390625,-4.13527726547718,-3.5883597147807476,-6.406256450590491
1679441216059585300,2.641585205078125,0.4590653719812631,-3.4064702389746904,-5.957133795952797
1679441216069557500,2.6515576171875,2.15365278237164,-1.8232810103207826,-3.5019828693151474
1679441216079529200,2.661529296875,0.9337900853872299,-0.051635494691133495,-1.37644909696877
1679441216089501400,2.67150146484375,-1.1064701265603303,0.6746542882934212,-2.164250164231658
1679441216099473400,2.681473388671875,-4.002474476662278,0.6473544856965542,-4.604586968097091
1679441216109445400,2.6914453125,-4.993764564859867,-0.027373744615912434,-7.479431625792384
1679441216119417300,2.701417236328125,-3.1479484821259973,-1.5479235617443918,-9.884255802249909
1679441216129390600,2.711390625,0.7256266429007053,-4.34391650878191,-11.263664333546162
1679441216139362300,2.7213623046875,5.277816484284401,-6.018723698425292,-9.562455459189414
1679441216149334500,2.73133447265625,6.334276671528816,-4.750225565348566,-7.293533791127801
1679441216159306200,2.74130615234375,3.1972447202146053,-2.485296181793511,-5.741753261694312
1679441216169278500,2.751278564453125,2.2130863835930823,0.7350142105795443,-3.2035102103501556
1679441216179250400,2.76125048828125,1.8426590800076723,1.7626807034075258,-2.1831588628411294
1679441216189222400,2.771222412109375,-1.9427578690946101,1.9549206005752084,-2.595629656907916
1679441216199194400,2.7811943359375,-4.069080745992064,0.23466990274861455,-4.782687865275144
1679441216209166300,2.791166259765625,-1.2185814250022171,-1.3782634529143571,-5.460236413705348
1679441216219138300,2.80113818359375,1.9754782354354856,-1.537337285800278,-4.829253217095136
1679441216229110500,2.811110595703125,1.8251158245325088,-1.0778753157168626,-2.486107205915451
1679441216239082200,2.821082275390625,-0.5263876806259155,-0.03776829738020897,-1.238237142586708
1679441216249055500,2.831055419921875,-1.3475696239650248,2.8772558104902504,1.8425842612057923
1679441216259027500,2.84102734375,0.10315525404810905,4.318927321214973,4.721227726662159
1679441216268999400,2.85099951171875,0.4550865680107847,4.837462242513895,8.7402593703717
1679441216278971400,2.860971435546875,0.023459238053299487,6.226828688722849,10.313290193104743
1679441216288943400,2.870943359375,0.020024660494737327,6.237105752587318,9.659722239720821
1679441216298915300,2.880915283203125,2.102417100653052,5.50480620779395,11.00194933361411
1679441216308887600,2.890887451171875,4.2807057271093125,5.832400331825018,13.190697394764422
1679441216318859300,2.900859375,4.9099113926529885,5.927524255108833,13.592625167506933
1679441216328831500,2.91083154296875,4.320904466506838,4.948914200264215,12.492231145989894
1679441216338803200,2.92080322265625,3.164782712548971,3.656133566585183,10.682715041649342
1679441216348775400,2.930775390625,1.7438485771656036,3.2494676594048735,9.490892444235087
1679441216358747400,2.940747314453125,-0.20542203482389448,3.168130561672151,10.872104810082911
1679441216368720400,2.950720458984375,-0.5424643706798553,3.288359700118005,11.512130560326575
1679441216378692400,2.9606923828125,-0.4156897561132908,3.150290076816082,10.835163026654719
1679441216388664600,2.97066455078125,-1.2867466142117976,2.387707621961832,8.065704743060468
1679441216398636300,2.98063623046875,-1.507803440541029,1.0711147355407475,3.242663824608922
1679441216408608500,2.9906083984375,-1.9039795178890226,-0.15348401352223007,0.9111106360673904
1679441216418580200,3.000580322265625,-2.1160908212184903,0.32146431603915987,2.7376380809634924
1679441216428552400,3.010552490234375,-0.518908138525486,1.4203190722249448,4.603681543689966
1679441216438524400,3.0205244140625,0.7899836719989776,0.669160367052257,1.7918214576959608
1679441216448496400,3.030496337890625,-0.75736033629179,0.26996041183844205,-4.53972374304235
1679441216458467800,3.0404677734375,-3.3904455713689323,-0.3489513848364353,-6.8520210269719355
1679441216468439600,3.050439453125,-6.640804626655578,-2.024092628739774,-7.977980282378196
1679441216478412500,3.06041259765625,-8.562460086488723,-3.371271792082488,-8.319429913282393
1679441216488384800,3.070384765625,-7.824239334952831,-3.818988963836431,-8.623090788540244
1679441216498356500,3.0803564453125,-6.354444430288672,-3.776141171234846,-9.526051435899735
1679441216508328700,3.09032861328125,-4.576567326793074,-3.3484815758645534,-11.463638624358177
1679441216518300400,3.100300537109375,0.42271220209598537,-2.1420909393936394,-11.194391475355625
1679441216528272600,3.110272705078125,6.1327551512748,-0.4870218849211931,-9.576644728061556
1679441216538244600,3.12024462890625,8.45830471548736,0.651010085594654,-8.894166322013735
1679441216548216600,3.130216552734375,6.4310635595887895,0.8903215305387974,-8.640918121653796
1679441216558188800,3.140188720703125,4.274244422140717,1.0644941483572126,-8.724936129033566
1679441216568160500,3.150160400390625,1.5870061565935611,0.36736499340534207,-10.244924512887
1679441216578132700,3.1601328125,-1.7010750188440082,-1.3698285097852347,-11.985410920143126
1679441216588105700,3.170105712890625,-3.5436592800498006,-2.1126414114169774,-11.6232762286067
1679441216598077400,3.180077392578125,-2.4790502731412647,-0.6625270665176213,-9.432388817340135
1679441216608049700,3.190049560546875,-0.6160696320515126,1.8822035932801662,-5.956369241321086
1679441216618021600,3.200021728515625,1.3128735736370085,5.901039568287134,-2.14708743250668
1679441216627993600,3.20999365234375,-0.5499966658808291,10.86645715958476,1.9319138189971445
1679441216637965600,3.219965576171875,1.8036778997063636,15.194401023209094,6.06061638225913
1679441216647937500,3.2299375,3.5158804617643353,8.371558159926533,5.395155746507644
1679441216657909500,3.239909423828125,-5.972863280004263,4.6182244483053685,7.776392126628756
1679441216667881700,3.2498818359375,-4.731157584524154,2.803688177715242,4.542387993815541
1679441216677853700,3.259853759765625,-2.9828035126328465,2.2643717496722937,3.1512212201863528
1679441216687825700,3.26982568359375,-5.314786324763298,1.3579936950847507,3.1934546802818775
1679441216697798700,3.279798583984375,-3.064738283997774,0.9674114922210574,3.747959617367387
1679441216707770600,3.2897705078125,2.5591093137621876,2.45515940220505,6.6289581215173
1679441216717742600,3.29974267578125,3.509040386611223,0.45262510980069637,7.297433721175789
1679441216727714600,3.309714599609375,2.2302514534056184,-4.7926869889810675,5.341292638894915
1679441216737686500,3.3196865234375,0.5166437007248401,-6.168371823579073,5.3529743088603015
1679441216747658800,3.32965869140625,-1.1640217134274542,-3.564201717340946,6.655265698206424
1679441216757630500,3.33963037109375,0.8707715383511037,-0.718616764138639,7.741113892498612
1679441216767602700,3.349602783203125,3.2988474841237068,-0.3333744609981775,7.973610981252789
1679441216777574700,3.35957470703125,2.8096809883892533,-0.5889727316156029,7.6011922115892165
1679441216787546600,3.369546630859375,0.7908172002136706,-0.10387626179903744,6.195427003765106
1679441216797518800,3.379518798828125,-1.2522516394138334,1.2962503556162117,4.187260550692677
1679441216807491600,3.38949169921875,-1.905599812567234,2.737052682290971,2.4605296970665456
1679441216817463600,3.399463623046875,-2.0860988569281993,3.5453590697050092,0.5636895295381545
1679441216827435800,3.409435791015625,-2.327520718155056,3.578055470648408,-0.6317547655045985
1679441216837407500,3.419407470703125,-2.78799756436944,3.1987381736427545,-0.9829530524849891
1679441216847379700,3.429379638671875,-2.972422403872013,2.70446412563622,-0.8640139538496732
1679441216857351400,3.439351318359375,-1.3939737938739358,1.9915832748010753,1.2391221087276936
1679441216867323600,3.44932373046875,0.6137537563245743,-0.0002034866828471422,3.791383164030313
1679441216877295600,3.459295654296875,0.7605215768016874,-1.7844459604918956,1.4679863939374684
1679441216887267600,3.469267578125,0.8307200254045426,-1.6941528183653949,-1.625125167107582
1679441216897239800,3.47923974609375,1.3880992027521133,-1.4783897145301104,-3.3711575180530544
1679441216907211500,3.48921142578125,0.6274245542805642,0.8511739806946367,-1.1489625298529862
1679441216917183700,3.499183837890625,0.1294260058581829,0.9541697333320974,-2.733615985840559
1679441216927156700,3.50915673828125,0.9404993007022887,-3.0366560988515614,-4.114713785398006
1679441216937128400,3.51912841796875,-1.3868553401708603,-1.8528285918444394,-4.415272602987289
1679441216947100700,3.5291005859375,-3.3322552482068537,-0.597452682930231,-6.275908653712272
1679441216957072600,3.53907275390625,-2.30619136826992,-0.5808531380459666,-6.946247124633192
1679441216967044600,3.549044677734375,-0.8079869462013244,-0.15865093129873276,0.5701204393684863
1679441216977016600,3.5590166015625,1.7512755122959613,1.3369041453048587,15.476972933208941
1679441216986988500,3.568988525390625,5.647953280490636,0.21420067682415245,12.292039413034916
1679441216996960500,3.57896044921875,6.547802517831325,1.4074851634845136,4.682912901315093
1679441217006932700,3.5889326171875,4.7571501039147375,3.642316053634882,-0.958023778411746
1679441217016904700,3.59890478515625,1.7076374460995196,4.242388855935633,-2.4315900183081625
1679441217026876700,3.608876708984375,-0.4649791260696947,3.61574310400784,-1.0372855311751366
1679441217036849700,3.618849609375,-1.0895151193019001,2.8467724094212055,1.2551555441617965
1679441217046821600,3.628821533203125,-0.09338204805254936,2.8169372431278226,2.9874516306996344
1679441217056793600,3.638793701171875,2.3992263564504683,4.259590458366275,4.36376044241488
1679441217066765600,3.648765625,4.276497754025459,4.960154556202888,3.1414076821804047
1679441217076737500,3.658737548828125,3.9088580353319644,3.988320863625407,1.2007359717100858
1679441217086709800,3.668709716796875,2.5227754330992695,2.541810388436913,-0.2235913132429123
1679441217096681500,3.678681396484375,-3.7287072198867794,1.0233575435876845,-1.4273182834625244
1679441217106653700,3.68865380859375,-1.0689173716269433,0.712723322185874,-0.7450304315507411
1679441217116625700,3.698625732421875,-1.8098562960803508,1.521518662160635,-0.8354618131041527
1679441217126597600,3.70859765625,-1.5083562521182,1.2028770753920077,-1.987339353621006
1679441217136569900,3.71856982421875,-1.1853716677092014,1.2527853078991174,-2.0377602118253706
1679441217146541600,3.72854150390625,-0.7312181792974471,1.2047130586475132,-2.2270126176148652
1679441217156514600,3.7385146484375,-0.8015186269700527,1.0665712468922137,-2.283568909834325
1679441217166486800,3.74848681640625,-0.3009526392124593,0.6580407148838043,-2.636258896677196
1679441217176458500,3.75845849609375,-0.6988602165281772,-0.09370002796053886,-2.8860622172802683
1679441217186430700,3.7684306640625,-2.0294282906793057,-0.8030880682438611,-3.1814813338935375
1679441217196402400,3.77840234375,-3.348023310703039,-0.4247241264402866,-3.8467654440343377
1679441217206374700,3.788374755859375,-4.5037002435028555,1.2099994746178389,-5.052793092411756
1679441217216346600,3.7983466796875,-4.34518492128253,2.959693855202198,-5.534095430642366
1679441217226318600,3.808318603515625,-2.955242136490345,3.676875910362601,-4.869387951345741
1679441217236290800,3.818290771484375,-1.4437223057746886,2.8446722222715612,-3.6882480759873983
1679441217246262500,3.828262451171875,0.6786497876703739,2.067821588090062,-1.8111027890101075
1679441217256234800,3.83823486328125,2.2258038263469935,1.5709937639474867,-0.19574030650407076
1679441217266206700,3.848206787109375,3.573357083699107,0.7412585117965936,-0.13388473883271215
1679441217276179500,3.858179443359375,4.636885894155502,-0.6188976220190525,-1.163517417167127
1679441217286151700,3.868151611328125,5.503882663208246,-1.622635103857517,-1.991291013856232
1679441217296123600,3.87812353515625,6.059533847719431,-1.59849668790102,-2.5141981588900086
1679441217306095600,3.888095703125,6.110514093372226,-0.9943202496737241,-2.6303493803724645
1679441217316067600,3.898067626953125,5.969505201748013,-0.3469038046568632,-2.095848828178644
1679441217326039600,3.90803955078125,5.5496483890831465,-0.18137246619462966,-1.9605308416724203
1679441217336011800,3.91801171875,3.862970144382119,0.415706122726202,-1.6251389033719896
1679441217345983700,3.927983642578125,2.210658279663324,2.0439374391555787,-1.1231450747683644
1679441217355955700,3.937955810546875,1.4336919101476668,3.6628912241518496,0.02842792984396219
1679441217365927700,3.947927734375,0.8883540298581123,4.052907025304436,1.3347463827490806
1679441217375899600,3.957899658203125,0.7029068615704774,3.6288697120845317,1.5555278992682695
1679441217385872600,3.96787255859375,1.47973294583261,2.818492071354389,1.422723356887698
1679441217395844600,3.9778447265625,1.2792705792427062,2.0002818373024462,1.3979041190601884
1679441217405816600,3.987816650390625,0.1616588809430599,1.0675000521749258,1.2200412684217095
1679441217415788500,3.99778857421875,-0.22585341295599937,-0.013965396988391875,1.4221753676161168
1679441217425760800,4.0077607421875,-0.502611668241024,-0.5066039527475834,1.5166744369998573
1679441217435732500,4.017732421875,-0.9925134925127029,-0.7190221300691366,0.9600552111741155
1679441217445704700,4.02770458984375,-1.1129542278826237,-0.8483955289572477,0.389736838080734
1679441217455675600,4.037675537109375,-0.8995476240456104,-1.0198141718924045,-0.02417297581322491
1679441217465647400,4.0476474609375,-0.5096434665739537,-1.1583517049670218,-0.11607114198356866
1679441217475619600,4.05761962890625,-0.7744553365428001,-1.519808351111412,0.1802312237376347
1679441217485591300,4.06759130859375,-1.0950690271019934,-1.9559002592623234,0.5668667713347822
1679441217495563500,4.0775634765625,-0.9848108822461217,-2.384012859097123,0.7617887471932917
1679441217505536500,4.08753662109375,-1.2853884776011109,-2.784474650940299,0.893237125724554
1679441217515508500,4.097508544921875,-2.1418531851150093,-2.969460631456971,0.8839492920931428
1679441217525480400,4.10748046875,-3.2415923959851263,-2.2642355560719967,0.5905712528534233
1679441217535452700,4.11745263671875,-3.110320469999313,-1.7942489771038292,0.4433845493771136
1679441217545424400,4.12742431640625,-2.556994513565302,-3.9848236691594123,-0.26586115982607006
1679441217555396600,4.137396728515625,-1.88774033074975,-5.029691618287563,-1.17010950890854
1679441217565368300,4.147368408203125,-1.277083298331499,-4.150741961112618,-1.4328599893681704
1679441217575340500,4.157340576171875,-1.083530418869108,-4.4730642822206015,-1.4849750842697917
1679441217585312500,4.1673125,-0.7833927493013441,-4.138116872817277,-1.5291906580932437
1679441217595284500,4.177284423828125,-0.4837105684161186,-4.428323223218322,-2.2193850453458723
1679441217605256400,4.18725634765625,-0.503970243243128,-3.797577927017212,-2.4408218109034
1679441217615228400,4.197228515625,-0.37458500778675075,-2.5820009445279837,-2.3740895771063864
1679441217625201400,4.207201416015625,-0.018723405170440674,-1.3169991291344165,-2.773539415428042
1679441217635173600,4.217173583984375,0.28379706788063047,0.5889630870044231,-2.7157892372488974
1679441217645145300,4.227145263671875,-1.1897745057780296,4.538992506158352,-1.2780028973944484
1679441217655117600,4.23711767578125,-2.815424500477314,7.033835976237058,-0.6218827753096818
1679441217665089500,4.247089599609375,0.5823813339939341,4.142430644363165,-2.411137305127084
1679441217675061500,4.2570615234375,0.43061373246815055,3.2003654825836416,-2.954033345222473
1679441217685033500,4.267033447265625,0.1582346786480397,2.8428263021439313,-3.247043062606454
1679441217695005400,4.27700537109375,0.21744565009474753,2.2993963013023135,-3.3818884631648656
1679441217704977400,4.286977294921875,-0.12217559633851051,1.1536305216640232,-3.462948205260932
1679441217714949600,4.29694970703125,0.12984336362057364,0.08449322367608547,-3.3173017169639465
1679441217724921300,4.30692138671875,-1.2610937020391224,0.5607797795712948,-2.788047833251953
1679441217734893600,4.3168935546875,-2.346481293082237,1.0007628499418497,-2.3201228629887103
1679441217744866600,4.326866455078125,-2.572605924195051,0.8030319541424512,-2.367073122473061
1679441217754838500,4.336838623046875,-2.6475989135980607,1.340042151069641,-1.9874998048797248
1679441217764810500,4.346810546875,-2.555399353328347,2.255549560791254,-1.0128723899304866
1679441217774782500,4.356782470703125,-2.558027363744378,3.244560598140955,0.4267075553424656
1679441217784754400,4.36675439453125,-2.656118904662132,3.9728889012157915,1.905477501361817
1679441217794726700,4.3767265625,-2.469284665930271,3.8786107811063526,2.840806194493174
1679441217804698400,4.386698486328125,-2.092893485504389,3.1762931176006792,3.2160990582883358
1679441217814670600,4.396670654296875,-1.5904764630526302,2.554341953229904,3.4928716343596578
1679441217824642300,4.406642333984375,-0.7111730240039527,2.2055478047817942,3.7520156147599217
1679441217834614500,4.416614501953125,0.5358268323615193,1.2709972564160823,3.667597209885716
1679441217844586500,4.42658642578125,1.9728205605335531,0.7903472446143627,3.8520296481728553
1679441217854558500,4.436558349609375,6.223961024332046,1.140229188299179,5.097572729858756
1679441217864531500,4.446531494140625,18.38602848806381,-0.07862579294741154,7.295723994648456
1679441217874503700,4.456503662109375,18.573550124537945,0.28418577493727204,7.916070646432042
1679441217884475400,4.466475341796875,7.426551683998108,0.08519698803126811,5.723229763010144
1679441217894447600,4.476447509765625,0.3107338823840022,-0.8811340154767036,3.6562750208824872
1679441217904419300,4.48641943359375,-1.9933019152872262,-1.686666554263234,2.6462203187212348
1679441217914391600,4.4963916015625,-2.8330659556299445,-1.8170330558419228,2.210298798701167
1679441217924363500,4.506363525390625,-3.441789974159002,-1.2547808656305075,2.1021984894663093
1679441217934335500,4.51633544921875,-3.726820967748761,-0.45917467757463454,2.012857825759053
1679441217944307500,4.526307373046875,-3.4736528468877075,0.29541560948193074,1.7007874340742826
1679441217954279400,4.536279541015625,-2.8554703874006866,0.5914210015505552,1.1702014980409294
1679441217964251400,4.54625146484375,-2.013512490275502,0.6140361534625292,0.5598189717151224
1679441217974223600,4.5562236328125,-1.109522938259691,0.5817822355896234,0.04372881321981549
1679441217984196400,4.5661962890625,-0.29387656334638596,0.4628799618333578,-0.4158654049411416
1679441217994168600,4.57616845703125,0.2884223895937204,0.35362054569125173,-0.7542511182300746
1679441218004140500,4.586140625,0.7033750636041164,0.3013087591737509,-0.9667805008411406
1679441218014112500,4.596112548828125,0.9359230057626962,0.22048282583355902,-1.1552134069412947
1679441218024084500,4.60608447265625,1.1247663923598825,0.12692191408276557,-1.282978786110878
1679441218034056400,4.616056396484375,1.1528706432074307,0.0372048182785511,-1.483291515097022
1679441218044028400,4.6260283203125,1.0702366375319659,-0.027654315122961997,-1.6508358008168638
1679441218054000600,4.636000732421875,0.9212811708174645,0.003994622594118118,-1.648789097420126
1679441218063972400,4.645972412109375,0.7266657766900956,0.03944353711605072,-1.6073733834482729
1679441218073944600,4.655944580078125,0.4637814407177269,-0.9517682251483202,-1.5477324230864644
1679441218083916500,4.66591650390625,0.08792334425523876,-1.720647149798274,-1.5133343327917157
1679441218093888500,4.675888427734375,-0.24326800055019557,-1.4265607430934906,-1.428133983759582
1679441218103860700,4.68586083984375,-0.4883901775997132,-0.7562813088834285,-1.3750295855596661
1679441218113833500,4.69583349609375,-0.8623305308073759,0.5932903025537729,-0.963831295646727
1679441218123805400,4.705805419921875,-1.2030664604842662,1.832745004236698,-0.5262563093312085
1679441218133777700,4.715777587890625,-1.3093068210661412,2.1444757887035606,-0.504673423076421
1679441218143749400,4.725749267578125,-1.2248106747806071,1.9552023401260374,-0.5780915643781424
1679441218153721600,4.7357216796875,-0.9205927501618861,1.3556471319586039,-0.6604929303415119
1679441218163693300,4.745693359375,-0.5089648366600275,0.725657038038969,-0.6741242730699479
1679441218173665500,4.75566552734375,-0.1778284734448418,0.2963403231114149,-0.646358752657473
1679441218183637500,4.765637451171875,-0.0287344750424847,0.1993354083865881,-0.5422235476613044
1679441218193609500,4.775609375,0.11034019711613655,0.3256283769160509,-0.36608956664204595
1679441218203581700,4.785581787109375,0.2700233940720558,0.015723054310679434,-0.47035146675780415
1679441218213553400,4.795553466796875,0.19227789109051227,-0.3121481330960989,-0.619614538116753
1679441218223525600,4.805525634765625,0.04090418425314128,-0.5019593418121338,-0.6397901879221201
1679441218233498600,4.81549853515625,-0.04954641345739364,-0.42880993444919585,-0.5614582633547485
1679441218243470300,4.82547021484375,-0.17155483653545378,-0.3000917845994234,-0.44544776551723475
1679441218253442600,4.835442626953125,-0.3504284716516733,-0.09952303502559662,-0.21783464941233396
1679441218263414500,4.84541455078125,-0.426809590944834,0.20723229911625385,-0.11418766632452607
1679441218273386500,4.855386474609375,-0.5247018464308232,0.43215106157064437,-0.012095949854701757
1679441218283358500,4.8653583984375,-0.5594137519150972,0.5313181227654218,-0.03224339647889137
1679441218293330400,4.875330322265625,-0.5970113689035177,0.29360592971146104,-0.07052592699155211
1679441218303302400,4.885302490234375,-0.6318611484885215,-0.09079553869068623,0.014417232409119605
1679441218313274600,4.895274658203125,-0.5439700260024517,-0.314059519675374,-0.015453443589061498
1679441218323246600,4.90524658203125,-0.44561778832189736,-0.5538643010944128,-0.16206716948300598
1679441218333218600,4.915218505859375,-0.4665221177279949,-0.8704711671650409,-0.03243073574453592
1679441218343190500,4.9251904296875,-0.4248456339281052,-0.9671645317226648,0.15096023066565392
1679441218353163500,4.93516357421875,-0.3365237918745726,-0.5622708949118852,0.3331570188552141
1679441218363135500,4.945135498046875,-0.21445530917234717,-0.21849545140862464,0.3307407514937222
1679441218373107500,4.955107421875,-0.07877250794172287,-0.05073942263424396,0.1986111857652664
1679441218383079400,4.965079345703125,-0.06571545796990394,0.13198212008178234,0.26352672552913425
1679441218393051600,4.9750517578125,-0.1075220709554851,0.17448095311522482,0.46983328810259695
1679441218403023400,4.9850234375,-0.06504201568774878,0.2613046655654907,0.6442927600383758
1679441218412995600,4.99499560546875,0.13535671108141542,0.12949381039738656,0.5437573330998421
1679441218422967600,5.004967529296875,0.29000235226154325,-0.07949497699737548,0.4321206664323807
1679441218432939500,5.014939453125,0.3235438257269561,-0.0830628986120224,0.5004672035582364
1679441218442911700,5.024911865234375,0.35965047350525853,-0.10055413163900374,0.6535834432139992
1679441218452883500,5.034883544921875,0.3739426182299852,-0.16091536909937856,0.7370695356741547
1679441218462856400,5.0448564453125,0.3872276317387819,-0.11009878957569598,0.762436908903718
1679441218472829700,5.05482958984375,0.44246378127038477,-0.08972411006689071,0.6848832752324641
1679441218482801400,5.064801513671875,0.5178730233240872,-0.279929871058464,0.48020109899044033
1679441218492773600,5.074773681640625,0.6271263750515877,-0.26384733578562736,0.33324462407343086
1679441218502745300,5.084745361328125,0.6898539032518863,0.0908878931492567,0.23835516713261604
1679441218512717600,5.094717529296875,0.7181138561177999,0.425116925150156,0.061090136256814
1679441218522689500,5.104689453125,0.6915134339619428,0.48087914438247675,-0.09783157480731607
1679441218532661500,5.11466162109375,0.6394008963435888,0.5733879167318344,-0.08593662741743027
1679441218542633500,5.124633544921875,0.5472299776464701,0.5283931752294302,-0.011821224566549063
1679441218552605400,5.13460546875,0.44173195986449715,0.5690852511018514,0.03721636258587241
1679441218562577400,5.144577392578125,0.34915487151928243,0.4273790248632431,-0.05273819523602724
1679441218572549600,5.154549560546875,0.2733130832672119,0.0808925688356161,-0.18964812710881232
1679441218582521300,5.164521240234375,0.18711597828269003,-0.30132980196177955,-0.28784400518387554
1679441218592494600,5.17449462890625,0.12713117291927337,-0.4827215573787689,-0.200374396045506
1679441218602466600,5.184466552734375,0.061282517023757095,-0.3328653424322605,-0.1586127912454307
1679441218612438500,5.1944384765625,0.03754851714968681,-0.421978042602539,-0.331394685357809
1679441218622410500,5.204410400390625,-0.026129224447533485,-0.3717465694904327,-0.3852404034443199
1679441218632382500,5.214382568359375,-0.11296228924803435,-0.26413082890212536,-0.34631416820064187
1679441218642354400,5.2243544921875,-0.23043189985267817,-0.11434300301671027,-0.2935406093902886
1679441218652326700,5.23432666015625,-0.24122400056719778,-0.30331250021159645,-0.3256783535376191
1679441218662298400,5.24429833984375,-0.2228267586112022,-0.41470951290428637,-0.40428661082834005
1679441218672270600,5.2542705078125,-0.20374160745628178,-0.31505671401917934,-0.5897093753270805
1679441218682242300,5.2642421875,-0.20405827219001949,-0.28288755182027814,-0.7157650279693305
1679441218692214500,5.274214599609375,-0.2605891377072781,-0.0634562808662653,-0.570231206266582
1679441218702186500,5.2841865234375,-0.3272672301642596,0.15595920799672602,-0.3530743099853396
1679441218712158500,5.294158447265625,-0.4059065401803702,0.027425182542204857,-0.22537425113692877
1679441218722131500,5.30413134765625,-0.40736433777324854,-0.16171674861013888,-0.20312267184033989
1679441218732103700,5.314103759765625,-0.37721886342167854,-0.02341302429139614,-0.2106397694721818
1679441218742075400,5.324075439453125,-0.4459546190608293,0.25780279492437835,-0.15068243663758038
1679441218752047600,5.334047607421875,-0.5488818365067243,0.5522960288643837,0.05278028081208467
1679441218762019300,5.344019287109375,-0.6452958726663142,0.8451081778496503,0.36812224151343104
1679441218771991600,5.353991455078125,-0.7279792704414576,0.887934927663207,0.712387514360249
1679441218781963500,5.363963623046875,-0.7930313691318035,0.6544336303025484,0.9874624927334487
1679441218791935500,5.373935546875,-0.8214636828899383,0.3354220411777496,1.1970134440556168
1679441218801907500,5.383907470703125,-0.8336561519216745,0.04206804040074348,1.3053658283554017
1679441218811879400,5.39387939453125,-0.7979401108961552,-0.07488952902853488,1.353705350241065
1679441218821851400,5.403851318359375,-0.7438344997644424,-0.052255087894201274,1.4114606429867445
1679441218831823600,5.41382373046875,-0.7545031932950019,-0.03684709088206291,1.4668883695676922
1679441218841796400,5.42379638671875,-0.825809603139758,-0.06831248872578144,1.5037565032377838
1679441218851768600,5.4337685546875,-0.9180074098438024,-0.06386836879849433,1.512718538980931
1679441218861740500,5.443740478515625,-0.802591736094281,0.018544541472196578,1.5993977283939718
1679441218871712500,5.45371240234375,-0.6376964305132627,0.21861410935223102,1.7992463469997046
1679441218881684500,5.4636845703125,-0.5715804289184511,0.5603805511206388,2.019612122324854
1679441218891656400,5.473656494140625,-0.6421032871700822,0.9224047680199146,2.1666610247656704
1679441218901628400,5.48362841796875,-0.7167676291406154,1.2216834826707839,2.2057602784886954
1679441218911600600,5.4936005859375,-0.7528175782956182,1.4055980345636605,2.193138697324693
1679441218921572400,5.503572265625,-0.7673276035547256,1.3675672868549822,1.9118550735697148
1679441218931544600,5.513544677734375,-0.18598726651370523,1.0616928272008894,1.483968391445279
1679441218941516300,5.523516357421875,0.54888519750759,0.6464993301719427,1.1127002531215548
1679441218951488500,5.533488525390625,0.932336963969469,0.3485626777797937,0.8835700104519725
1679441218961460500,5.54346044921875,0.947945159728825,0.11223755517005919,0.7326102181777358
1679441218971433500,5.55343359375,0.9239175106704235,-0.0070960957407951355,0.5789515422083437
1679441218981405400,5.563405517578125,0.8856408253766596,-0.2075467718929052,0.29066315425783396
1679441218991377700,5.573377685546875,0.6344891589045524,-0.1557248147189617,0.09266922360807657
1679441219001349400,5.583349365234375,0.3326790260799229,0.056093058621883386,-0.1515378844231367
1679441219011321600,5.593321533203125,0.43731677377074957,0.18353402814269065,-0.6539636747032403
1679441219021293300,5.603293212890625,0.8275418337598442,0.31625381484925746,-1.4454855160549283
1679441219031265500,5.613265625,1.1621056506730616,0.6022405017286538,-2.214392497755587
1679441219041237500,5.623237548828125,1.3053538456566631,0.8309417053312063,-2.397488719002902
1679441219051209500,5.63320947265625,1.2131368958607316,1.261077919948101,-1.8020488371998071
1679441219061181400,5.643181396484375,1.452408885577321,1.4907283870995043,-1.1755965620175004
1679441219071153400,5.6531533203125,1.6282066203795373,1.4916887565642594,-0.6747793759778141
1679441219081125400,5.66312548828125,1.3614790529824792,1.5333511387735603,-0.2181266180962324
1679441219091098600,5.6730986328125,0.8400663842901587,1.8370757269173859,0.24729338360875844
1679441219101070300,5.6830703125,0.21183657804131506,2.1302906114846465,0.6363765800863505
1679441219111042600,5.69304248046875,-0.30859365548491474,2.306667753610015,0.9027882134020327
1679441219121014500,5.7030146484375,-0.5923870701037347,2.3996949968755246,1.0791840602278708
1679441219130986500,5.712986572265625,-0.7689457062758505,2.397994622698426,1.1165712493360043
1679441219140958500,5.72295849609375,-0.8364648526668548,2.3143740902036427,1.0866372988432644
1679441219150930400,5.732930419921875,-0.751558372014761,2.182021383243799,0.8974705255106091
1679441219160902400,5.74290234375,-0.4805331074237823,2.0626509074538943,0.6247188755184412
1679441219170874400,5.752874267578125,0.003791062846034765,1.7918144434332846,0.1306634386986494
1679441219180846300,5.762846435546875,0.6393282694987953,1.290837682917714,-0.4324573510408401
1679441219190818600,5.772818603515625,1.087119529402256,0.9274410086214542,-0.9260662131369113
1679441219200790500,5.78279052734375,1.1376574381150304,0.45631519649028773,-1.2934402666315437
1679441219210762500,5.792762451171875,0.5511693629220128,0.33116496825516223,-1.4534025727897881
1679441219220735500,5.802735595703125,-0.11082184315323829,0.691685794854164,-1.571564257311821
1679441219230707500,5.81270751953125,-0.6894932532459497,0.7291232528448104,-1.5854069047033785
1679441219240679400,5.822679443359375,-1.0288302759103476,0.3616431086272001,-1.5574159049719571
1679441219250651400,5.8326513671875,-1.1445854838125407,0.5359937133610249,-1.3546072675168515
1679441219260623400,5.842623291015625,-1.1061180982522665,0.33772505742311476,-1.3603762063071132
1679441219270595600,5.852595703125,-0.9191886555176227,0.01369067170023918,-1.4616379016935825
1679441219280567300,5.8625673828125,-0.7208147125743329,-0.14596329916119574,-1.2138865451842547
1679441219290539500,5.87253955078125,-0.2616657539628446,0.2746329336941242,-0.8291612516552209
1679441219300511500,5.882511474609375,0.04008022758439183,1.2202163327276705,-0.1513859087318182
1679441219310483500,5.8924833984375,0.13023074636980891,2.1870938642024993,0.524288662520051
1679441219320455400,5.902455322265625,0.125457102227211,2.9926936230063435,1.1787769456192851
1679441219330427400,5.912427490234375,0.009122121675685048,2.9758126308321953,1.3583636974409221
1679441219340400400,5.922400390625,-0.02703238383233547,2.233215563908219,1.163373917043209
1679441219350372600,5.93237255859375,0.31329613408744333,0.995140918406844,0.599910889737308
1679441219360344300,5.94234423828125,0.6939057359259575,0.03746668408513069,-0.12609569239169358
1679441219370316500,5.952316650390625,1.0026356580764055,-0.7092389872014522,-0.8286769752696156
1679441219380288300,5.962288330078125,1.2063964816898107,-1.583569167882204,-1.2758484958395362
1679441219390260500,5.972260498046875,1.4706477221012115,-2.5167051732748744,-1.510578165951371
1679441219400232400,5.982232421875,1.5443687918722628,-3.6847213631659743,-1.7514584676474332
1679441219410204400,5.992204345703125,1.3802625177770853,-4.9084839901983734,-2.23026723549664
1679441219420176400,6.00217626953125,1.147954229593277,-5.791713516649604,-2.5861428666383026
1679441219430148400,6.0121484375,0.8605424783468246,-6.464444435665011,-2.9246023758158084
1679441219440120600,6.02212060546875,0.40472880163788794,-6.952601462095975,-3.1248405782610176
1679441219450092500,6.032092529296875,-0.3864028713524341,-7.31289374063611,-3.283822056688368
1679441219460063700,6.042063720703125,-1.4500292969644069,-7.190044775080681,-3.093222620204091
1679441219470036700,6.05203662109375,-2.472093293610215,-5.678776288777589,-1.8272940453544257
1679441219480009000,6.062009033203125,-2.7848002296328542,-3.4268256292611357,-0.6132914725750684
1679441219489980700,6.071980712890625,-2.612670223557949,-1.9734721563100814,-0.19025193822085856
1679441219499953000,6.081952880859375,-2.027287917649746,-1.3413883049815893,-0.17326047140955925
1679441219509924600,6.091924560546875,-1.2453227169334888,-1.1839613625198602,-0.3267611803382635
1679441219519896800,6.101896728515625,-0.514676200044155,-1.2417898666322231,-0.6181745684415102
1679441219529868800,6.111868896484375,-0.017183756246697157,-1.4129635948956012,-0.8276318501308559
1679441219539840800,6.1218408203125,0.2950198881626129,-1.64657653593719,-0.91672496881783
1679441219549812700,6.131812744140625,0.45748307122588155,-1.692675439289212,-0.9268871741309761
1679441219559784700,6.14178466796875,0.5646540271887556,-1.6332055977106092,-0.8544047062441706
1679441219569756700,6.151756591796875,0.6228817232191562,-1.2517466125011443,-0.6558969808533788
1679441219579729000,6.16172900390625,0.5726398017782718,-0.6321575010865926,-0.27965719159692526
1679441219589700600,6.17170068359375,0.4878630484530702,0.22171908963024614,0.26737112599760293
1679441219599673900,6.181673828125,0.6347661492150276,1.2375818935483693,0.8887430291756987
1679441219609645800,6.191645751953125,0.6404266591947525,2.18054604999423,1.4086696970939636
1679441219619617800,6.20161767578125,0.35299510726928707,3.063912354567647,1.7709502268418669
1679441219629589800,6.21158984375,0.07483995426576584,3.6392058126598594,1.8601795391291378
1679441219639561700,6.221561767578125,0.050016953578591344,3.7309336637645956,1.5869380597934126
1679441219649533700,6.23153369140625,0.5004267619499937,3.3107372438818214,1.0077125229492783
1679441219659506000,6.241505859375,1.064968487870693,2.5147785891264673,0.28784663553237916
1679441219669477600,6.2514775390625,1.2387749027252197,1.8130092071533201,-0.1408849729835987
1679441219679449900,6.261449951171875,1.0289362935680895,1.1411252603560686,-0.26669629547595974
1679441219689421600,6.271421630859375,0.786976964463666,0.6626853258192539,-0.26852789481729267
1679441219699393800,6.281393798828125,0.5171721085131168,0.28472236603200435,-0.2982783054366708
1679441219709365800,6.29136572265625,0.23411577599719166,0.053442836374044414,-0.30221067644953725
1679441219719337700,6.301337646484375,0.004283887864276767,-0.25228432376384735,-0.35301264292597767
1679441219729310700,6.311310791015625,-0.1527705680232495,-0.4730687628924846,-0.37801439771354195
1679441219739283000,6.321282958984375,-0.21393727664761245,-0.6667237875550985,-0.4088201626047492
1679441219749254700,6.331254638671875,-0.2246316891413182,-0.9022527913510799,-0.4367380970999598
1679441219759227000,6.341226806640625,-0.15367599243037403,-1.223137773132324,-0.5266621136531233
1679441219769198600,6.351198486328125,0.018615926207974552,-1.4927444030970334,-0.606811462906003
1679441219779170800,6.3611708984375,0.1974169344794005,-1.592608798906207,-0.6667366470366716
1679441219789142800,6.371142822265625,0.33580782562494277,-1.3153519464492798,-0.5199065019130706
1679441219799114800,6.38111474609375,0.30316110904216764,-0.7042500928729772,-0.1517073957711458
1679441219809086700,6.391086669921875,0.10835282269120215,0.20720015041232107,0.4186088584303856
1679441219819058700,6.40105859375,-0.06965754665918648,0.9518278463810682,0.8910890077799558
1679441219829030700,6.41103076171875,-0.123774848228693,1.1866297049462795,1.0643135310932994
1679441219839003000,6.4210029296875,-0.05299509260654449,1.1155956823021174,1.008365726161003
1679441219848974600,6.430974609375,0.014008651608228683,0.679748104301095,0.6275327638953924
1679441219858947800,6.44094775390625,0.06681092505641281,0.33329087436795235,0.29522593212872744
1679441219868919800,6.450919921875,-0.013617021942138671,0.17806991751790047,0.13871376642435787
1679441219878891800,6.460891845703125,-0.21684235043935476,0.14280162025988102,0.12526304095983504
1679441219888863700,6.47086376953125,-0.3576865530211478,0.06511983016431332,0.13925678725987672
1679441219898835700,6.480835693359375,-0.41491460702233013,-0.09312953459620475,0.10105419011563062
1679441219908807700,6.4908076171875,-0.48890521444976326,-0.13171499357819558,0.1213020283743739
1679441219918780000,6.50077978515625,-0.5929109478473663,0.016531448084115982,0.1861982789158821
1679441219928751600,6.510751708984375,-0.6372392613302916,0.221020001450181,0.27279753496050835
1679441219938723800,6.520723876953125,-0.48660913940183814,0.2675701557010412,0.2968637624636292
1679441219948695600,6.530695556640625,-0.14872516508996486,0.23987375500202177,0.30650866590440273
1679441219958667800,6.540667724609375,0.20733407899029552,-0.13311433898210526,-0.0034089316606521606
1679441219968639700,6.5506396484375,0.44234687689244745,-0.734620096695423,-0.3203811239123344
1679441219978612700,6.56061279296875,0.27195933057069777,-0.7591115638732909,-0.2043628811597824
1679441219988584700,6.570584716796875,0.0414443555444479,-0.6099824941575527,-0.0973904069110751
1679441219998557000,6.580556884765625,-0.1068990436863154,-0.6756137809753417,-0.14099135596752166
1679441220008528600,6.590528564453125,0.10194887393303215,-0.8374363280475139,-0.41390696434974666
1679441220018500900,6.6005009765625,-0.04416172474436462,-1.4214736490875481,-0.5274766449064016
1679441220028472600,6.61047265625,-0.4922357471119612,-1.4125456617444754,-0.2543821728259325
1679441220038444800,6.62044482421875,-0.7370785957634448,-0.8658265562295914,0.0759630034789443
1679441220048416800,6.630416748046875,-0.961744917826727,-0.16225509327054022,0.4053253062263131
1679441220058388700,6.640388671875,-0.8387566899310797,0.45150984203517436,0.5941811139136552
1679441220068360700,6.650360595703125,-0.32372575816512106,0.796424518701434,0.6885381444782018
1679441220078332700,6.660332763671875,-0.03711947808265686,1.208117314133048,0.9054708766147493
1679441220088304600,6.6703046875,0.14369761925153435,1.5297574981957673,1.0050155389502644
1679441220098276900,6.68027685546875,0.353862537753582,1.7355740852952002,1.0649050672456621
1679441220108248800,6.690248779296875,0.5261094482064247,1.8012971420496702,1.0496195275694131
1679441220118221800,6.700221923828125,0.6549328119963407,1.7550164523899554,1.0348299547165631
1679441220128193800,6.71019384765625,0.6155354521095753,1.5207739812731742,1.0555471640527248
1679441220138165800,6.720165771484375,0.4575352398045361,0.8623615104675293,0.8041758634805679
1679441220148137700,6.7301376953125,0.34285248343944547,0.00473521182835102,0.2637628723725676
1679441220158109700,6.740109619140625,0.21717260530702767,-0.4436217191338539,-0.1292167470216751
1679441220168081700,6.75008154296875,0.06462474012374878,-0.41423897278308863,-0.22903145847022532
1679441220178054000,6.760053955078125,-0.05314421875365078,-0.23523498928546904,-0.18531302051395177
1679441220188025600,6.770025634765625,-0.1212479600995779,-0.008449848437309265,-0.0840256061643362
1679441220197997800,6.779997802734375,-0.12283135683350264,0.13122867136597632,0.09163403534144163
1679441220207969800,6.7899697265625,0.028929814951494333,0.0970358943849802,0.23916677577644585
1679441220217941800,6.799941650390625,0.09862878959961235,-0.02037175689935684,0.2806093777552247
1679441220227914000,6.8099140625,0.04647197444811463,-0.19715806434750555,0.2610246795803308
1679441220237885700,6.8198857421875,-0.011793240581080318,-0.35693595384955407,0.18826777866631744
1679441220247858700,6.829858642578125,-0.07468260827958584,-0.5188070162385702,0.08708616277873515
1679441220257831000,6.839830810546875,-0.14059212751686573,-0.46638066343069073,0.10198124183267354
1679441220267802600,6.849802734375,-0.08684592428207397,-0.3289823635190725,0.0842307733476162
1679441220277774800,6.85977490234375,-0.01922908967025578,-0.15879413916170595,0.1520920111745596
1679441220287746600,6.86974658203125,0.0832546217918396,-0.043932080706954,0.15643734690248964
1679441220297718800,6.87971875,0.15215857360474763,-0.03042611792385578,0.03628828795552254
1679441220307690800,6.889690673828125,0.043426469272375104,-0.09874269830286503,-0.09736936412304639
1679441220317662700,6.899662841796875,-0.21099545104205608,-0.115156657487154,-0.1135492222905159
1679441220327634700,6.909634765625,-0.31365554198436435,-0.012024784314632416,-0.1307113694936037
1679441220337606700,6.919606689453125,-0.2068196266621351,0.13489654622375966,-0.21686609664112327
1679441220347579000,6.929578857421875,-0.20959245237633584,0.11274492017030716,-0.284174669021368
1679441220357550800,6.93955078125,-0.16737660100273788,0.01989654060304165,-0.24710136816799638
1679441220367522800,6.949522705078125,-0.027297099183127282,-0.05770984616875648,-0.19642127450555563
1679441220377495800,6.959495849609375,0.05983765197768807,-0.12137947752475738,-0.14768968456238507
1679441220387467800,6.9694677734375,0.2086187850385904,-0.09919920989871024,-0.00751022949963808
1679441220397439700,6.979439697265625,0.3107721685677767,-0.025744682109355925,0.14213029686957596
1679441220407411700,6.98941162109375,0.3962088105738163,0.021134557965397833,0.2230082526579499
1679441220417383700,6.9993837890625,0.5838912636328488,-0.09259235897958278,0.10447598125785588
1679441220427355600,7.009355712890625,0.7252824325729161,-0.19262392804920672,-0.07139759525954723
1679441220437328000,7.019327880859375,0.8309101411491632,-0.12584756284952162,-0.18649696960151194
1679441220447299800,7.0292998046875,0.9781763396024703,0.1442091489702463,-0.3695499362289905
1679441220457271800,7.039271728515625,0.9472142881710082,0.4744815522998571,-0.5778825978025793
1679441220467243500,7.049243408203125,0.8101257117956876,0.7312345459103584,-0.6508575253814458
1679441220477215500,7.059215576171875,0.7254139499980956,0.805227418360114,-0.6108551853388547
1679441220487187500,7.0691875,0.5038870950043202,0.6699123544633389,-0.6414750722691417
1679441220497159400,7.079159423828125,0.32291217675991357,0.4841249944359064,-0.6374725586295128
1679441220507132400,7.08913232421875,0.13522212491631508,0.25128245324492454,-0.4672001631200313
1679441220517104400,7.0991044921875,0.13058686633110045,-0.15862053616046903,-0.3997568584442138
1679441220527076600,7.10907666015625,0.0022257862906903026,-0.6151034904330969,-0.3538222057431936
1679441220537048600,7.119048583984375,-0.1844727702975273,-0.5720587139546871,-0.2212462114214897
1679441220547020500,7.1290205078125,-0.2020009012687951,-0.21112404585778713,0.05604162069559097
1679441220556992500,7.138992431640625,-0.3064373542338609,0.1503700096875429,0.3864931799843907
1679441220566964500,7.148964599609375,-0.49700489774253215,0.32107670496106144,0.6332680926769971
1679441220576936400,7.1589365234375,-0.4327040923435241,0.4114952270328998,1.0389549256920814
1679441220586908700,7.16890869140625,-0.08869418249726295,0.2458294485360384,1.1671554814085363
1679441220596880400,7.17888037109375,0.4396855852613225,-0.11571253780424594,0.9072142131507396
1679441220606852600,7.1888525390625,0.5446825581859797,-0.5786895302712917,0.534208583509922
1679441220616824300,7.19882421875,0.06332651700675487,-0.9090987117230892,0.36405455368310213
1679441220626796500,7.208796630859375,-0.4301823187809437,-1.2283365108191966,0.21806524329781532
1679441220636769500,7.21876953125,-0.021105331870913506,-0.6981254725128412,-0.014156243385374545
1679441220646741500,7.228741455078125,-0.10658983160667121,-0.4165910888671875,-0.179890995465219
1679441220656713500,7.23871337890625,-0.5703658654969185,-0.5541670834332704,-0.19897388159781693
1679441220666685700,7.248685791015625,0.08807575833797454,0.19180092122852802,-0.15466712235957383
1679441220676657400,7.258657470703125,-0.18845212225727737,-0.08189210126698017,-0.19829934333711863
1679441220686629600,7.268629638671875,0.05467793112695217,0.054767947497963904,-0.1695782757654786
1679441220696601300,7.278601318359375,0.45221879402212795,0.7717962734013796,-0.05091916311532259
1679441220706573600,7.288573486328125,0.4118616491924971,0.8080150032520294,-0.08023848884105682
1679441220716545500,7.298545654296875,0.7090367426276206,0.5720172129005193,-0.3350622679546475
1679441220726517500,7.308517578125,0.7078841385263949,0.32433716806173324,-0.4834919572293758
1679441220736489500,7.318489501953125,0.6368039386529475,0.08389233517348765,-0.5003685654893517
1679441220746461400,7.32846142578125,0.7724036647100001,-0.05065466696023941,-0.49016193651258944
1679441220756433400,7.338433349609375,0.7336720752555876,-0.41140170353055,-0.5895268583670258
1679441220766405600,7.348405517578125,0.26734986401386557,-1.1282032349407671,-0.6271387961417436
1679441220776378400,7.35837841796875,-0.25018705922365186,-1.8148229785770176,-0.5706549846366048
1679441220786350600,7.3683505859375,-0.9386299266338348,-1.6498381680816412,-0.377428706780076
1679441220796322600,7.378322509765625,-1.4400018239468335,-1.4301163897484541,-0.3447527641028166
1679441220806294500,7.38829443359375,-1.376432145833969,-1.3850164343059062,-0.5271466822996735
1679441220816266500,7.3982666015625,-1.2396306427717207,-0.8918062161386012,-0.4653948672637343
1679441220826238500,7.408238525390625,-0.8332102347850799,-0.14883154807388782,-0.27738632405549285
1679441220836210400,7.41821044921875,-0.36372349509783086,0.6030535716772079,0.07652823614627123
1679441220846182700,7.4281826171875,0.14554821555428207,0.8746469915449618,0.3964183616712689
1679441220856154400,7.438154296875,0.5374158551186323,1.0812532677173614,0.6827531313359737
1679441220866126600,7.448126708984375,0.8513977064479142,0.9965595530331134,0.6207905961588025
1679441220876098300,7.458098388671875,0.8779542163968086,1.1015092892825602,0.64943246101439
1679441220886070500,7.468070556640625,0.7589527200497687,1.5095838942170143,0.8643708044633269
1679441220896042500,7.47804248046875,0.8076345525670796,1.7035639130502938,1.0067889783635735
1679441220906015500,7.488015380859375,0.774759287925437,1.6977175251096486,1.0419541075080632
1679441220915987500,7.497987548828125,0.9025825347620994,1.383288003078103,0.7866904756724834
1679441220925959700,7.507959716796875,0.7508814956665039,0.961759457808733,0.5850432832121849
1679441220935931400,7.517931396484375,0.358579044881463,0.6307277605444193,0.34852848324924707
1679441220945903600,7.527903564453125,0.15867197408676145,-0.07246376318633556,-0.06713409259617328
1679441220955875300,7.537875244140625,-0.16521569664180277,-0.25646248623132706,-0.27704671683758497
1679441220965847600,7.54784765625,0.21651867144294082,-0.4538917687356472,-0.5965683013111353
1679441220975819500,7.557819580078125,0.48089434195160863,-0.4459568840831518,-0.6908052126273513
1679441220985791500,7.56779150390625,0.10371507988795638,-0.08721183498501778,-0.3304708485111594
1679441220995763500,7.577763427734375,0.18186580266952512,-0.13293138363063334,-0.08161094623804092
1679441221005735400,7.5877353515625,0.22069383823573588,0.009851531928777694,0.05019786310344934
1679441221015707400,7.597707275390625,0.4089605939887464,0.04124737166762352,-0.006853226895630359
1679441221025679600,7.6076796875,0.46806291742920875,0.00468903459906578,-0.09055909958630799
1679441221035651300,7.6176513671875,0.17744915527105332,-0.05591302587985992,-0.09835632933378219
1679441221045624600,7.62762451171875,-0.06923069954924285,-0.1343365742534399,-0.09133680596053599
1679441221055596500,7.637596435546875,-0.08454130060151219,-0.12864450009167194,-0.0924067732796073
1679441221065568500,7.647568603515625,0.03793839325010776,0.004355857121944427,-0.07449380770921707
1679441221075540500,7.65754052734375,0.24830197612941263,0.20534663150012492,-0.05216185665279627
1679441221085512400,7.667512451171875,0.3893104293622076,0.353931511336565,0.010914484985172748
1679441221095484400,7.677484375,0.44256497662253674,0.4386182117581367,0.13075140924304723
1679441221105456600,7.68745654296875,0.40659167290031906,0.3714870417714119,0.22860651105642318
1679441221115428400,7.697428466796875,0.3577110298752785,0.17889292433857917,0.2613511350557208
1679441221125400600,7.707400634765625,0.3388734968058765,0.0064782561033964155,0.21759236508905885
1679441221135372300,7.717372314453125,0.35684959074035283,-0.14220248532295227,0.1627840855807066
1679441221145344500,7.727344482421875,0.457729301071912,-0.15325637877881526,0.16277619453519582
1679441221155316500,7.73731640625,0.5483693569399416,-0.026071429845690726,0.191276897354424
1679441221165288400,7.747288330078125,0.6068745912700891,0.18505436957776544,0.24082974055260417
1679441221175261400,7.757261474609375,0.52797860307917,0.37994039734005924,0.31011925761699677
1679441221185233700,7.767233642578125,0.3545709782838821,0.539531239837408,0.4383741738691926
1679441221195205400,7.777205322265625,0.07531520709469915,0.5572855077147484,0.5747875543966889
1679441221205177600,7.787177490234375,-0.1543218160532415,0.41534664176404473,0.6741396167695521
1679441221215149300,7.7971494140625,-0.3134731711547822,0.13448095116019249,0.709612496688962
1679441221225121500,7.80712158203125,-0.45682073485963043,-0.15295535000562666,0.6746086955860257
1679441221235093500,7.817093505859375,-0.7930646868795156,-0.36667701114118095,0.5386541647419333
1679441221245065500,7.8270654296875,-1.0407874748814852,-0.5582745187520981,0.3100345019429922
1679441221255037400,7.837037353515625,-1.0888614776987582,-0.6984738475590944,0.11889321366697549
1679441221265009400,7.847009521484375,-1.0317612147957087,-0.711665922087431,0.12183774268627166
1679441221274981400,7.8569814453125,-0.8965040185660124,-0.6147428404271602,0.3653554071485996
1679441221284953600,7.86695361328125,-0.7127420268863439,-0.5818073700308799,0.7630830978527665
1679441221294925600,7.876925537109375,-0.5623579156082124,-0.7006395011603832,1.2894897754400967
1679441221304897500,7.8868974609375,-0.5284591896703467,-0.9920879605770111,1.8521105067029595
1679441221314870300,7.896870361328125,-0.434839277741313,-1.258120239186287,2.3220117454752325
1679441221324842500,7.906842529296875,-0.5519780124237761,-1.3383400233268736,2.841735876558721
1679441221334814500,7.916814453125,-0.6734855367749929,-1.3733522999972103,3.120712100154161
1679441221344786400,7.926786376953125,-0.3063455477645621,-1.5657652156442403,2.6502991124674677
1679441221354758400,7.93675830078125,0.2944271829664707,-1.976287213730812,1.5880653102576732
1679441221364730400,7.94673046875,0.46262043411433695,-2.0343407587707043,0.7959259215295315
1679441221374702300,7.956702392578125,0.3319019772928208,-1.6733920621484517,0.27941403049081565
1679441221384674600,7.966674560546875,0.17119013140890746,-0.9997744234263897,-0.07724895163625478
1679441221394646500,7.976646484375,0.10399455441646277,-0.15580664778351783,-0.4435772954702377
1679441221404618500,7.986618408203125,0.16441782426238058,0.6767524296164512,-0.8501713064581156
1679441221414590500,7.996590576171875,0.2266367453534156,1.3961539143919943,-1.3491934257745741
1679441221424562400,8.0065625,0.16930040867216883,2.0317817219376564,-1.7418924746617674
1679441221434534700,8.01653466796875,0.16359664407260716,2.481871760302782,-1.9966347129717468
1679441221444506400,8.02650634765625,0.25874628631956875,2.770949398934841,-2.1291303355336186
1679441221454479400,8.036479248046875,0.5079951879102736,2.657924492779374,-2.2909724640890956
1679441221464451600,8.04645166015625,0.914818842935562,1.8625977061867713,-2.5840266051366925
1679441221474423600,8.056423583984374,1.4420920742243528,0.8025257581859827,-2.83497734220922
1679441221484395800,8.066395751953126,1.8425357458889484,0.028121932634711265,-2.7477660917460915
1679441221494367500,8.076367431640625,1.8667098176807164,-0.2929068415313959,-2.1400421901702877
1679441221504339700,8.086339599609374,1.4228782551884651,-0.2535024673819542,-1.2261962839201093
1679441221514311700,8.096311767578126,0.6872627177149057,-0.15024901365637777,-0.38410891519635915
1679441221524283600,8.10628369140625,0.019190292029827832,-0.07374035899341105,0.20339608195424078
1679441221534255600,8.116255615234374,-0.36723990572094917,-0.03629530221819877,0.6029278994709253
1679441221544227600,8.1262275390625,-0.45472412790656086,-0.025070143848657606,0.8314701131194829
1679441221554199800,8.13619970703125,-0.35664822294935583,-0.04100947125852108,0.8740621773943305
1679441221564171500,8.146171630859374,-0.1661853453915566,-0.10610942767858504,0.7917021663546562
1679441221574143700,8.156143798828126,-0.00786525348238647,-0.1726478924691677,0.5913289393529295
1679441221584115700,8.16611572265625,-0.005134440279006958,-0.17113807242810725,0.3457797690629959
1679441221594088400,8.17608837890625,-0.04370587073564529,-0.14141805694699286,0.04506780673861503
1679441221604060700,8.186060791015626,-0.13805004181861877,-0.13918401428461075,-0.15466273844540118
1679441221614032600,8.19603271484375,-0.29297932224571704,-0.04785188449919223,-0.2677545723572373
1679441221624004600,8.206004638671875,-0.3934171340286731,0.13992168090939522,-0.2628252992615104
1679441221633976600,8.2159765625,-0.3946925607919693,0.2968804213374853,-0.20723989790081976
1679441221643948500,8.225948486328125,-0.4147814090967178,0.35938276247978207,-0.16937661571353674
1679441221653920800,8.235920654296875,-0.4339221628963947,0.30263796195089815,-0.13154489770829678
1679441221663892700,8.245892822265626,-0.3941039472490549,0.1870557725280523,-0.09732435593754052
1679441221673864700,8.25586474609375,-0.32615693083479996,-0.013875965139269829,-0.08348375437259674
1679441221683836700,8.265836669921875,-0.25655484068989753,-0.17525076844394205,-0.06626315498054026
1679441221693808600,8.27580859375,-0.1518969269938767,-0.22560616019666194,0.0019528876334428786
1679441221703780600,8.285780517578125,-0.036161373640224335,-0.2719534853518009,0.07106354099959135
1679441221713752800,8.2957529296875,0.07060907523036003,-0.336538477987051,0.18459990380853414
1679441221723724500,8.305724609375,0.1821707769654691,-0.36292671869695187,0.30854484790712594
1679441221733697500,8.315697509765625,0.30032778531238435,-0.24138649765253065,0.4566363912686705
1679441221743669800,8.325669677734375,0.3644704410076141,-0.05761106196939945,0.54741644012928
1679441221753641700,8.335641845703124,0.39412740118987855,0.09015022652447223,0.5517600222915411
1679441221763613700,8.34561376953125,0.36993871635086834,0.13984686210751532,0.47845863923728466
1679441221773585700,8.355585693359375,0.3411296051695943,0.12010638884902,0.39499271278232334
1679441221783557600,8.3655576171875,0.310070815365389,0.08376958557665348,0.31919454447627066
1679441221793529900,8.37552978515625,0.2504256172198802,0.04228255993425846,0.2826259782746434
1679441221803501600,8.38550146484375,0.20039748466014862,0.06606324849426747,0.28745646717101336
1679441221813473800,8.395473876953124,0.10276347825154662,0.14376783494353293,0.3417652727246284
1679441221823445500,8.405445556640625,-0.028070494708418846,0.11434475658237933,0.3112348176434636
1679441221833417700,8.415417724609375,-0.18589944209977982,0.06889116539657116,0.2390697451427579
1679441221843389700,8.4253896484375,-0.29754779920503494,-0.005787935751676559,0.19204788172692058
1679441221853361700,8.435361572265625,-0.38164829723648724,-0.07908581167459487,0.1428223707869649
1679441221863333600,8.445333740234375,-0.47006307827048,-0.06637655222713947,0.1633235992848873
1679441221873306600,8.455306640625,-0.5062443256549537,0.015154314512014388,0.13514087637364863
1679441221883278600,8.465278564453126,-0.42795580183789134,0.014612462720274924,-0.06007189912497997
1679441221893250800,8.475250732421875,-0.2540365742586553,-0.019003975677490233,-0.2597439921200275
1679441221903222500,8.485222412109374,-0.1317295335602015,-0.009823474878072738,-0.3340574748262763
1679441221913194800,8.49519482421875,-0.020362404549121856,0.0035819501399993892,-0.31880554515868426
1679441221923166700,8.505166748046875,0.16812727323956786,-0.010270634123682976,-0.2550555420428514
1679441221933138700,8.515138671875,0.3475392530161887,0.05937164190113544,-0.09483663077503442
1679441221943110700,8.525110595703126,0.5235657550729811,0.16854922497868538,0.1376046361386776
1679441221953082600,8.53508251953125,0.6223942319631576,0.214279879540205,0.37475744174420833
1679441221963054600,8.5450546875,0.6356149480640888,0.14652385565340517,0.554361729222536
1679441221973026800,8.55502685546875,0.5454715896718204,0.0067740241795778275,0.5923886775389313
1679441221982998500,8.56499853515625,0.4180366115003824,-0.17570903360545634,0.5138149070397019
1679441221992970800,8.574970703125,0.2722072409171611,-0.24847207199931143,0.36016982120424507
1679441222002942500,8.5849423828125,0.14263853865265846,-0.21413258002400398,0.17488953391611575
1679441222012915700,8.594915771484375,0.07884148152470588,-0.10115209753215312,-0.018161971895396707
1679441222022887700,8.6048876953125,0.044001711877062914,0.07299976975917816,-0.17740005543231963
1679441222032859600,8.614859619140624,0.02421031214892864,0.19043255548477173,-0.33995530069321395
1679441222042831600,8.62483154296875,-0.023875234975665807,0.2956026564866304,-0.368389075756073
1679441222052803800,8.634803955078125,-0.09723222067467868,0.3092062344253063,-0.3326493615940213
1679441222062775600,8.644775634765624,-0.12214344763457774,0.21304244669973849,-0.28960809224694967
1679441222072747800,8.654747802734375,-0.05392755115106702,-0.00743921009004116,-0.23238486055135726
1679441222082719500,8.664719482421875,0.023903438156843183,-0.18019114745557308,-0.1630623180001974
1679441222092691700,8.674691650390624,0.13806348582208156,-0.2234644719928503,-0.027336335214972494
1679441222102663700,8.68466357421875,0.25587387268841266,-0.16856442254781723,0.08683248027861118
1679441222112635600,8.6946357421875,0.3444389489132911,-0.06801262899637221,0.14897300237119196
1679441222122607600,8.704607666015624,0.2742624929465353,-0.0011532616883516312,0.17985183249861
1679441222132579600,8.71457958984375,0.10217734892666339,0.02995674684643745,0.24459055439084768
1679441222142551600,8.724551513671875,-0.044644028368592256,0.0367167425006628,0.327422274595499
1679441222152524800,8.73452490234375,-0.1639244147222489,-0.012291910818219185,0.39592385615259407
1679441222162496500,8.74449658203125,-0.15989998151175677,-0.043135377371311186,0.3773389826700091
1679441222172468700,8.75446875,-0.054795420026779174,-0.04079962790012359,0.27809154971539973
1679441222182440700,8.764440673828124,0.15758184076249598,-0.04901157592833042,0.09254501270651817
1679441222192412700,8.77441259765625,0.31671953266486524,-0.04181844955384731,-0.03792728733420372
1679441222202384600,8.784384521484375,0.35827341299839316,-0.01862988166809082,-0.10159721095114946
1679441222212356600,8.794356689453124,0.3422692036587745,0.021986206358671188,-0.10777765315175056
1679441222222328600,8.80432861328125,0.23546061473488805,0.013887071055173873,-0.07611702499687671
1679441222232300800,8.81430078125,0.15310038449950517,-0.05888590421080589,-0.027821780644357204
1679441222242272500,8.8242724609375,0.06424151295982301,-0.05742284592092037,0.1130389346808195
1679441222252244700,8.83424462890625,-0.05909867017865181,0.03849485808908939,0.2821364411920309
1679441222262216400,8.844216552734375,-0.11817527465596794,0.08952303453683852,0.3612447569593787
1679441222272188700,8.854188720703124,-0.14645254398286342,0.08768295962810516,0.3318494433879852
1679441222282160600,8.86416064453125,-0.23853812248408793,0.024621815559267995,0.2708773805528879
1679441222292133600,8.874133544921875,-0.36524449412003157,-0.06464169125854968,0.22904373342990875
1679441222302105600,8.884105712890625,-0.5424082565784454,-0.15769348444342612,0.2075432647615671
1679441222312077800,8.894077880859374,-0.7617763991683721,-0.279929871058464,0.19742022241503
1679441222322049500,8.904049560546875,-0.8320746548838913,-0.40819618548750874,0.24209260009527206
1679441222332021800,8.914021728515625,-0.8517970079638063,-0.38904315672814843,0.36690292885154485
1679441222341993500,8.923993408203126,-0.8248339630406349,-0.2770984470248222,0.5270744938462972
1679441222351965700,8.933965576171875,-0.6789217364795506,-0.1959317374229431,0.6560349280193448
1679441222361937700,8.943937744140625,-0.5721686040699482,-0.172001995781064,0.7317439567372203
1679441222371909600,8.95390966796875,-0.47311610916554925,-0.20859014346599578,0.7194207739979028
1679441222381881600,8.963881591796875,-0.3478735264718532,-0.24980069025456905,0.6446376279532909
1679441222391853600,8.973853515625,-0.2465573244191706,-0.29519641377329825,0.625463264144957
1679441222401825800,8.98382568359375,-0.17141572032570837,-0.2255342640042305,0.6029647243499755
1679441222411797500,8.993797607421875,-0.07391045486330985,-0.09831073662638663,0.5893614386722446
1679441222421769700,9.003769775390625,0.024441198295354842,0.03367313702106475,0.5381012070342898
1679441222431741700,9.01374169921875,0.10733107842803001,0.12849603153169153,0.47202042288333174
1679441222441714400,9.02371435546875,0.12411335946805774,0.19509353303313254,0.36705344323813915
1679441222451686700,9.033686767578125,0.04604162020683288,0.17428338471651075,0.23232728514522313
1679441222461659400,9.043659423828124,-0.0032721535384654995,0.08674480199515819,0.005551204386353492
1679441222471631400,9.05363134765625,0.027731325881928205,-0.02272328846156597,-0.23811229828745126
1679441222481603300,9.063603271484375,0.06539265575632452,-0.08701192849874496,-0.4552779623970389
1679441222491575600,9.073575439453125,0.1301491325009614,-0.07566343601047992,-0.5914972816571593
1679441222501547300,9.08354736328125,0.20937764058187602,-0.004247720572352409,-0.6685390202835202
1679441222511519500,9.09351953125,0.24734350636079905,0.06465981143712997,-0.6592606120675801
1679441222521491200,9.1034912109375,0.30130817465186116,0.1213654489994049,-0.6109729664996266
1679441222531463400,9.11346337890625,0.337687721087411,0.14884265398979185,-0.4825380175054073
1679441222541435400,9.123435302734375,0.4121118976265192,0.15092647452652452,-0.3457750928878784
1679441222551407400,9.133407470703125,0.47963352823555466,0.1215612638324499,-0.14895342088788746
1679441222561379300,9.14337939453125,0.5019873988628387,0.052857729962468146,0.05340308888554573
1679441222571351300,9.153351318359375,0.5108107567876577,0.010811316871643066,0.21514351063221693
1679441222581324300,9.16332421875,0.5754478449363261,-0.0033019641548395155,0.30559885758310557
1679441222591296500,9.173296630859374,0.6709482003170997,0.006084288349747657,0.2526899819552898
1679441222601268200,9.183268310546875,0.6778525728780775,0.00799041423201561,0.13877894061505794
1679441222611240400,9.193240478515625,0.661338587385416,0.016126374414563178,0.0746843618452549
1679441222621212400,9.20321240234375,0.8180190953940153,0.04448679198026657,0.13965250857919453
1679441222631184400,9.213184326171875,0.8883721500366926,0.08114274420440197,0.2780345588311553
1679441222641156400,9.22315625,0.7398574858922511,0.07783318126499653,0.4084571745112538
1679441222651128300,9.23312841796875,0.48474056905098256,-0.00011807342171669006,0.47072219976633783
1679441222661100300,9.243100341796875,0.20687398719787597,-0.10213877048194407,0.4864467153817415
1679441222671072500,9.253072509765625,0.05530738813690841,-0.19281506670713425,0.48195378787666554
1679441222681044200,9.263044189453124,0.028041268613934515,-0.30265549760758875,0.45693566647619005
1679441222691016400,9.273016357421875,0.2045406123468652,-0.31311668586730956,0.4900064536899328
1679441222700988400,9.282988525390625,0.30949089658558365,-0.2791179701536894,0.5877610177382826
1679441222710960400,9.29296044921875,0.3134323276877403,-0.20632570566534994,0.6355757850974798
1679441222720932600,9.3029326171875,0.39126609347462654,-0.15870938348770142,0.6240186182945966
1679441222730905300,9.3129052734375,0.539199231404066,-0.08197919502854346,0.5899015368983149
1679441222740877300,9.322877197265624,0.7582762820929289,-0.06133797353804111,0.46252983322143554
1679441222750849500,9.332849609375,0.9367278924047946,-0.14046353270113468,0.0702680067077279
1679441222760821200,9.3428212890625,0.8828244527816772,-0.30872575743198394,-0.575939939302206
1679441222770793500,9.35279345703125,0.9137830701470374,-0.41658290556073185,-1.0926000066399573
1679441222780765200,9.36276513671875,0.7646960129421204,-0.241259071880579,-1.1316387623474
1679441222790737400,9.3727373046875,-0.0411831473249942,0.021046879681944845,-0.8037193518847227
1679441222800709400,9.38270947265625,-0.0920038185019046,0.14411445642411708,-0.19554127680063246
1679441222810681300,9.392681396484376,0.32050153542160986,0.03328852161765098,0.4747387419313192
1679441222820653300,9.4026533203125,0.7352749073423445,-0.19244798696041107,1.1706199426487087
1679441222830625300,9.412625244140624,1.1277039071165025,-0.49984687970280645,1.6757660978034137
1679441222840597500,9.422597412109376,0.8629949860654771,-0.8832745346367359,1.642948993089795
1679441222850569500,9.432569580078125,0.17640972922071813,-1.2585533699065445,1.1805921783477067
1679441222860541400,9.44254150390625,-0.2849143814727664,-1.4268763849139212,0.7532119844406843
1679441222870513400,9.452513427734376,-1.2382068935789168,-1.4508324300408362,0.4833598552823066
1679441222880486400,9.462486328125,-1.92169257697314,-1.458387959986925,0.3568067745119333
1679441222890458400,9.472458251953125,-1.7980404783412813,-1.4962655629605055,0.3194195854038
1679441222900430300,9.482430419921876,-1.1326643060028552,-1.4372896423786878,0.04361000914573669
1679441222910402300,9.49240234375,-0.9353986896276474,-1.1136661755442618,-0.7869482498258352
1679441222920374300,9.502374267578125,-1.2724454093977808,-0.5209007736474275,-1.8391344130128622
1679441222930346500,9.512346435546876,-1.6787003976896404,0.3125754185974598,-2.6895404050096867
1679441222940318500,9.522318359375,-1.9124284895434975,0.9066197543889284,-2.82048587552011
1679441222950290400,9.53229052734375,-1.407372935281694,0.9490162960916757,-2.390019698296487
1679441222960262400,9.542262451171876,-0.30607611970603466,0.8891595010221004,-1.4411444181106983
1679441222970234400,9.552234375,-0.22853461486399174,0.8566150757700204,-0.019632921230792997
1679441222980206600,9.56220654296875,-1.5003537090569734,0.5689525646328926,0.9734697693467139
1679441222990178300,9.57217822265625,-2.481911507791281,-0.10064064087867736,0.7732828586973249
1679441223000150500,9.582150634765625,-2.6598820565879344,-1.0892056880265473,0.11805471701622008
1679441223010122200,9.592122314453125,-2.0173370169997216,-2.038334212321043,-0.007238426820933818
1679441223020094500,9.602094482421874,-1.2936343278989195,-2.7954671695977447,0.33123080003298816
1679441223030067500,9.6120673828125,-0.990512089562416,-3.275780496791005,0.2808430403806269
1679441223040039400,9.622039306640625,-1.1260463491678236,-3.212906984248757,-0.2865251776702702
1679441223050011400,9.632011474609374,-1.0806681613057851,-2.642112591141462,-0.9682721276383847
1679441223059983600,9.641983642578126,-0.767496530380845,-1.9682237342625855,-1.6867837509021162
1679441223069955300,9.651955322265625,-0.4197480915933847,-1.1500982558846473,-2.012330294753611
1679441223079927600,9.661927490234374,-0.18901976607739923,-0.2929232081443071,-2.1843112477466464
1679441223089899300,9.671899169921875,0.034843349844217296,0.5153717810928822,-2.180277754446864
1679441223099871500,9.68187158203125,-0.0037830256700515743,1.431179635065794,-1.6483210415169596
1679441223109843500,9.691843505859374,0.30043080729544164,1.856867053580284,-0.4630443586148321
1679441223119815400,9.7018154296875,0.0983341175019741,1.6403654063373803,0.7222267713293433
1679441223129787400,9.711787353515625,-1.0164467412859202,0.9966314492255449,1.3188161154285072
1679441223139759400,9.72175927734375,-1.9295178637713193,0.21300854443013667,1.3592824197210371
1679441223149731300,9.7317314453125,-1.841587066861987,-0.5878074872285127,1.0755071252807975
1679441223159703600,9.74170361328125,-1.037877651849389,-1.1113543914705515,0.714192810216546
1679441223169676300,9.75167626953125,-0.3987748616695404,-1.2154758602023124,0.3564223783042282
1679441223179648500,9.7616484375,-0.6480319465667009,-1.0974170515328645,-0.3289337386043742
1679441223189620500,9.771620361328125,-1.5237708250015973,-0.9266215089321136,-1.0158930529259145
1679441223199592400,9.781592529296875,-1.1075988383293152,-0.7373001295596361,-0.8810782667014747
1679441223209564400,9.791564453125,-0.46732174367308615,-0.36656595198214054,-0.2638814572509378
1679441223219536400,9.801536376953125,-0.37547874175608154,0.23092004869580268,0.21033618341572582
1679441223229508400,9.81150830078125,0.06158347273170948,0.6591741028279066,0.5170666753772646
1679441223239480600,9.82148046875,-0.14653496156930923,1.0333008454531432,0.3913138781391084
1679441223249452300,9.831452392578125,-0.48045770410001276,1.497907484948635,-0.01736957940869033
1679441223259424500,9.841424560546875,-0.16385668324828148,1.9554992772459983,-0.3978184377275407
1679441223269396200,9.851396240234376,0.22079671408832072,2.060511557337642,-0.7167044277112931
1679441223279368400,9.861368408203125,0.3343734089076519,1.606428357683122,-0.5505138216227292
1679441223289340400,9.87134033203125,0.6716553987383842,0.7276017423659563,0.08970335953980683
1679441223299312400,9.8813125,0.7039817973256111,0.23420535397678613,0.4467070448633283
1679441223309284400,9.891284423828125,0.9042214610755444,0.11080693784505129,0.6139422646339983
1679441223319257600,9.901257568359375,1.4861106641709803,-0.07693330981582402,1.0933846542116255
1679441223329229300,9.911229248046874,1.6902993578076362,-0.39190234555155035,1.6367689892806112
1679441223339201500,9.921201416015625,1.5810072084397078,-0.690009386074543,1.7956155892819166
1679441223349173200,9.93117333984375,1.8436743945300578,-0.5724135187417269,1.378504275932908
1679441223359145500,9.9411455078125,2.274853980720043,-0.08084639160633086,0.6564842061568051
1679441223369117400,9.951117431640625,1.939518448781967,0.16008827062547207,0.14711385743580757
1679441223379089400,9.96108935546875,1.7481120798289775,0.14255407523959873,0.2619197287239134
1679441223389061400,9.971061279296874,1.633834543263912,0.30769144594818354,0.5053530759036541
1679441223399033300,9.981033447265625,1.5890145738065242,0.5418059067711234,0.3801587893310934
1679441223409005300,9.99100537109375,1.439012812909484,0.673625237506628,-0.13689889902211724
1679441223418977500,10.0009775390625,0.5764554876089095,0.6652858637064695,-0.7636532258909196
1679441223428949200,10.01094921875,0.817415284281969,0.6501441164150834,-0.5903680584315211
1679441223438921500,10.02092138671875,1.355517952620983,0.9109186206266283,0.018342077702656386
1679441223448893200,10.03089306640625,0.8465700670957564,0.7911353262521326,-0.20347418869175016
1679441223458866400,10.040866455078126,1.479917654749751,0.5665665462791919,-0.2594732854198664
1679441223468837600,10.050837646484375,2.2565946859300134,0.4030082614555955,-0.18833529094457624
1679441223478809900,10.060809814453124,2.3081208750277757,0.44781449464857576,-0.5731642640437931
1679441223488781800,10.07078173828125,2.8743332010418174,0.6564451162554323,-0.8988913520939648
1679441223498753800,10.08075390625,3.148471044695377,0.7197597966939211,-1.2399433619827032
1679441223508725800,10.090725830078124,2.96776493345499,0.7939984605982899,-1.4099699660375713
1679441223518697700,10.10069775390625,2.9707407343953847,0.8786037663467228,-0.9239810774259268
1679441223528670000,10.110669921875,3.0322996572077274,0.9116650550797581,-0.7411877846479415
1679441223538642000,10.120641845703124,3.0389181985646485,0.8638666543334722,-0.8612443430058657
1679441223548614000,10.13061376953125,2.7890181395888325,0.8262494558617473,-1.1668494841992854
1679441223558585900,10.1405859375,2.3145219742417336,0.7843801529034972,-1.2332719213947654
1679441223568557800,10.150557861328124,2.19119603882432,0.7278989717468619,-0.8760393226861953
1679441223578529800,10.16052978515625,2.0690321329236028,0.5792404421523213,-0.5091808174982667
1679441223588502800,10.170502685546875,1.7202596117854116,0.42987054941803216,-0.6365696184404194
1679441223598474800,10.180474853515625,1.7668039208173751,0.5668178906917571,-0.8751170202095061
1679441223608446700,10.19044677734375,1.9023942945241927,0.8906509086236357,-0.87082714099586
1679441223618419000,10.2004189453125,1.6961884158462286,0.9987123471528291,-0.6231481921356171
1679441223628391000,10.210390869140625,1.2024351768434047,0.7841668024137616,-0.4214440818563103
1679441223638363000,10.22036279296875,1.2011819619119166,0.6035168052747846,-0.3208256528094411
1679441223648334800,10.2303349609375,0.5853367132008075,0.39863983711302275,-0.15709603000693023
1679441223658306800,10.240306884765625,0.3416659040033817,0.11146452497094869,-0.09208623608835041
1679441223668279000,10.250279052734374,0.6497253064811229,0.11456482907384634,0.0049506812099367374
1679441223678250800,10.260250732421875,0.8232745317041873,0.25275164901465175,0.01937814275212586
1679441223688223000,10.270222900390625,0.841039320975542,0.2342220128506422,0.15934066712856293
1679441223698194700,10.280194580078126,0.6448954021066426,0.020403905603289602,0.11308065493069588
1679441223708167000,10.2901669921875,-0.08016893073618411,-0.2864022819429636,0.014420520344749093
1679441223718139000,10.300138916015625,-0.17602993612289428,-0.43481706590950486,0.1886151307992637
1679441223728110800,10.31011083984375,0.09343114789128303,-0.5140115986555814,0.5212515598464756
1679441223738082800,10.320082763671875,-0.0020125088661909103,-0.6561532937020063,0.7298310357879847
1679441223748055800,10.330055908203125,-0.6499672985434531,-0.7100579023689031,0.8414422757532447
1679441223758027800,10.34002783203125,-0.4654851758956909,-0.7603045730501413,1.040518887073174
1679441223768000000,10.35,0.10509352863430976,-0.9514742106378078,1.1656342631906271
1679441223777971700,10.3599716796875,-0.19066285710930822,-1.1051344940423964,1.0748394551523028
1679441223787944000,10.36994384765625,-0.5894283664286136,-1.2145821262329817,0.837095697916299
1679441223797916000,10.379916015625,-0.7303396428972482,-1.2131728439569474,0.5289162127228454
1679441223807888000,10.389887939453125,-0.9426631276726722,-1.167308918404579,0.3041428135558963
1679441223817859800,10.39985986328125,-1.1533002667963503,-1.015260746371746,0.30109862355440853
1679441223827831800,10.409831787109376,-0.31728549598455424,-0.8798299471408129,0.3544057047195732
1679441223837803800,10.4198037109375,0.30022037941515445,-0.743195617339015,0.329486440583691
1679441223847776000,10.42977587890625,-0.01906418143212795,-0.646530309832096,0.1738350746934302
1679441223857747700,10.439747802734376,-0.37261575354039667,-0.5736661491513252,0.018013804729515685
1679441223867720000,10.449719970703125,-0.6961673241823911,-0.4863946929335594,-0.06934343007556162
1679441223877691600,10.459691650390624,-0.38724399835169315,-0.34384967778325076,0.0011044529689184855
1679441223887663900,10.469663818359376,0.009930442383885383,-0.1825035160511732,0.15302373906672
1679441223897636900,10.479636962890625,0.08632394623458385,-0.1652940225750208,0.12440348325474188
1679441223907608800,10.48960888671875,0.10956979726552962,-0.12996318147480487,0.014140406495425849
1679441223917580800,10.499580810546876,0.2114385186344385,-0.10831073711514472,-0.20907869416791944
1679441223927553000,10.509552978515625,-0.24447569583952425,0.012447978162765503,-0.43380971549786623
1679441223937524700,10.519524658203125,-0.6650035396337509,0.09733400054872035,-0.5894536470003425
1679441223947497000,10.5294970703125,-0.7357657595992088,0.0537310056656599,-0.6614340105839073
1679441223957468700,10.53946875,-0.2413718846052885,-0.10978607036471366,-0.8518184160780161
1679441223967441000,10.54944091796875,0.18708499862253664,-0.20719255162775516,-1.0199347295321524
1679441223977412900,10.559412841796876,0.32105916930437084,-0.2787082203090191,-1.1571104727342725
1679441223987384800,10.569384765625,0.3915422800675034,-0.3294926511287689,-1.2568307838976382
1679441223997356800,10.579356689453125,0.1366717392027378,-0.45365795997977254,-1.3342908940665423
1679441224007328800,10.589328857421876,-0.12194237210452556,-0.6462818880289792,-1.448750509200245
1679441224017300700,10.59930078125,-0.24374036730229853,-0.85786536809206,-1.5606633624605835
1679441224027273000,10.60927294921875,-0.3518523669749498,-1.0371955148041248,-1.6642478017061948
1679441224037244700,10.61924462890625,-0.4328682699292898,-1.2970990814000367,-1.8115629538677631
1679441224047218000,10.629218017578125,-0.725045335881412,-1.4904378797203301,-1.904195206466317
1679441224057190000,10.63918994140625,-0.9869006210669875,-1.517777137544751,-1.792015957354754
1679441224067161900,10.649161865234374,-0.6635320057764649,-1.395817229783535,-1.5252503960348665
1679441224077133800,10.6591337890625,0.2577016726374626,-1.2460323265075683,-1.186564092364162
1679441224087105800,10.669105712890625,0.9643298928186297,-1.0664847376525401,-0.9462725503414868
1679441224097077800,10.679077880859374,0.64949763520509,-0.9618769467085599,-0.7460339095048606
1679441224107050000,10.689050048828125,-0.1523345877587795,-1.0172048661768436,-0.5035106629073619
1679441224117021700,10.699021728515625,-0.37934082401171326,-1.0360445912033318,-0.24945918334051964
1679441224126994000,10.708993896484374,-0.23415829996466636,-1.0494488471776247,-0.13539163626432418
1679441224136965600,10.718965576171875,0.04378887284398079,-1.2062480131298303,-0.11697510508596896
1679441224146937900,10.728937744140625,0.5064062382183969,-1.4784943439483642,-0.1720876282379031
1679441224156909800,10.738909912109374,0.8995672055289149,-1.7589426859229802,-0.34901392867863174
1679441224166881800,10.7488818359375,0.9943966759108006,-1.8423586357563733,-0.48859103393405673
1679441224176854000,10.75885400390625,0.4759586391150951,-1.8678683400660752,-0.616832213921845
1679441224186825700,10.76882568359375,-0.2275717611812055,-1.9892016403615473,-0.7356240130409598
1679441224196798700,10.778798828125,-0.6578185965657234,-1.7491075206071138,-0.7444143454790115
1679441224206771000,10.78877099609375,-1.0030104096729309,-1.3779028029084204,-0.7956850985109806
1679441224216742700,10.79874267578125,-1.2118004596251994,-1.0764864917069672,-0.9265411371722817
1679441224226715000,10.80871484375,-1.0965466984391212,-0.5744581763118505,-1.0248802231103182
1679441224236686800,10.818686767578125,-0.7849205433905124,0.16586334689557553,-0.9799182148337363
1679441224246658800,10.828658935546875,-0.5491220750033855,0.6485282056510449,-0.9821256617501377
1679441224256630800,10.838630859375,-0.42283612073659893,0.8866887269943952,-1.036997361883521
1679441224266602800,10.848602783203125,-0.22034601117875427,0.9764642749875784,-1.1589105078935622
1679441224276575000,10.858574951171875,0.04120302106924355,1.099185814771056,-1.20075613771528
1679441224286547000,10.868546875,0.2975380084633827,1.248133098179102,-1.1180857455521822
1679441224296519000,10.878518798828125,0.6288683964133263,1.3556249201267956,-0.9352361925423145
1679441224306491000,10.888490966796875,1.0153374648697673,1.3203022623330354,-0.7134136425375938
1679441224316462800,10.898462890625,1.2996810607172549,1.1360083557337521,-0.519182279291749
1679441224326434800,10.908434814453125,1.6125199525564908,0.8640800048232078,-0.3366723334997892
1679441224336407000,10.918406982421875,1.8885015243805945,0.5534954677820205,-0.28869886844754217
1679441224346378800,10.928378662109376,1.9610858452066777,0.30707799022495746,-0.15517331831604242
1679441224356351700,10.938351806640625,1.9419123581811784,-0.021138065096735954,-0.024851532661914824
1679441224366324000,10.948323974609375,1.841319209706038,-0.11791326271891593,0.18839198956787584
1679441224376295700,10.958295654296874,1.56349990106076,-0.08815057713985443,0.429275798395276
1679441224386268000,10.968267822265625,1.1732296867556868,-0.04475508752763271,0.6430924443379045
1679441224396240000,10.978239990234375,0.8247288221657275,0.036245033335685725,0.8830722900629043
1679441224406211800,10.9882119140625,0.650340808030963,0.18143384099304674,1.080233861541748
1679441224416184000,10.99818408203125,0.7276698391661047,0.3095306440740824,1.2565452449545262
1679441224426155800,11.00815576171875,0.951670756123215,0.31840543992519377,1.3727379674911497
1679441224436128000,11.0181279296875,1.1348442803904413,0.2853933971613645,1.4936118335813282
1679441224446099700,11.028099609375,1.471763866649568,0.4530746071338653,1.7126196184262632
1679441224456072000,11.038072021484375,1.940577894707024,0.8667723126471042,1.8072586808025837
1679441224466044000,11.0480439453125,2.113915230745077,1.1019786603599786,1.4504799633413552
1679441224476016000,11.05801611328125,1.9775769612804055,1.0226502721011639,0.9734405432522296
1679441224485987800,11.06798779296875,1.6080812394566832,0.7678922517001628,0.5814364908918738
1679441224495960000,11.0779599609375,1.0126558245703576,0.4775719195306301,0.3414227428972721
1679441224505932000,11.08793212890625,0.19116437689065932,0.2502934422075748,0.32253304124921556
1679441224515905000,11.097905029296875,-0.6726993548333644,0.06369710388481617,0.43602819526493547
1679441224525877000,11.107876953125,-1.5796467337414621,-0.08720306715667248,0.5690466726571322
1679441224535849200,11.11784912109375,-2.7438424885615706,-0.2677525265306234,0.6179702780410647
1679441224545821000,11.127821044921875,-3.948592664349079,-0.34592940666675565,0.6384346816599369
1679441224555793200,11.137793212890625,-4.071342845705152,-0.3939829512178898,0.6830071060970425
1679441224565764900,11.147764892578126,-3.645142801493406,-0.5753887351602316,0.5797951534256339
1679441224575737000,11.157737060546875,-3.2630764980405567,-0.816066792282462,0.4013274687618017
1679441224585709000,11.167708984375,-2.6199825923979283,-0.9487824873358011,0.3443710713088512
1679441224595681000,11.177680908203126,-1.5134152890734374,-1.0661655887007713,0.4299582277014851
1679441224605653000,11.187653076171875,-0.1888506931208074,-1.095098253196478,0.6744222331032157
1679441224615625000,11.197625,0.8107203166879713,-1.105621985298395,0.930419732171297
1679441224625597000,11.207596923828126,1.2542138793975115,-0.9114531658947467,0.945028395499289
1679441224635569000,11.21756884765625,1.1406173108339308,-0.7784025397986173,0.5556485541626811
1679441224645540900,11.227540771484374,0.4989724349558353,-0.7553934201329946,0.14459201080799103
1679441224655513000,11.23751318359375,-0.2556803959429264,-0.5776783074021339,0.005939911442995071
1679441224665484800,11.24748486328125,-0.8575229843951762,-0.2608838098049164,0.021012977412343023
1679441224675458000,11.2574580078125,-1.2363630192779005,0.04891746790409088,0.007841068889200687
1679441224685430000,11.267429931640624,-1.3740880669258535,0.2617746211647987,-0.08173603392243385
1679441224695402000,11.277402099609375,-1.3194802784256636,0.3588227905094623,-0.2482557989001274
1679441224705374000,11.2873740234375,-1.2057459088265896,0.3964519716799259,-0.43105537528842686
1679441224715346000,11.297345947265624,-1.0399655640393495,0.408389662232995,-0.544044625608623
1679441224725318000,11.30731787109375,-0.8297678392462432,0.4749532614648342,-0.5856438794538379
1679441224735290000,11.3172900390625,-0.6586451105177402,0.553638091123104,-0.4982505504220724
1679441224745261800,11.32726171875,-0.5055274095572531,0.623726941871643,-0.34325580354332924
1679441224755234000,11.337234130859375,-0.35652284300401804,0.6079051033616065,-0.11631138048022985
1679441224765205800,11.347205810546875,-0.16350348589643834,0.5051490777641534,0.12566051584482194
1679441224775178000,11.357177978515624,0.06569149257242679,0.4263338997244835,0.33751579858660696
1679441224785150000,11.36714990234375,0.3168003428161144,0.3971633348196745,0.5780348657548428
1679441224795122000,11.377121826171875,0.5688172478154301,0.36149288650155065,0.7921969641342759
1679441224805094000,11.387093994140624,0.7549919997252523,0.2443476855456829,0.9674956633731723
1679441224815065900,11.39706591796875,0.9285190131165086,0.02902092730104923,1.051150974920392
1679441224825038800,11.407038818359375,1.0462301773920655,-0.16215923168063162,1.0871280049696563
1679441224835011000,11.417010986328124,1.10593426611796,-0.3445382445693016,1.0868439273312687
1679441224844982800,11.426982666015626,1.099613100272417,-0.5554553696781397,1.0051435492441056
1679441224854955000,11.436955078125,1.0294333563700317,-0.7630506568878889,0.896200651705265
1679441224864927000,11.446927001953124,0.8544833244383334,-0.8444733870774507,0.7628796842351555
1679441224874899000,11.45689892578125,0.5499965197503567,-0.7843383595883846,0.5933817802295088
1679441224884871000,11.466870849609375,0.0569660420641303,-0.6340291401773691,0.398613241367042
1679441224894843000,11.4768427734375,-0.45663580674678084,-0.4623690897017717,0.2650312848731875
1679441224904814800,11.48681494140625,-0.8436492112129926,-0.28202421298921104,0.18261662103682755
1679441224914787000,11.496787109375,-1.012478422176838,-0.13935937085151673,0.17230477811992168
1679441224924758800,11.5067587890625,-0.9555052197195589,-0.01622398957014084,0.2187301369473338
1679441224934731000,11.51673095703125,-0.7399016903601586,0.06908639570772647,0.36821751858144997
1679441224944703000,11.526702880859375,-0.5981124620132148,0.13904022189974785,0.5758040379628538
1679441224954675000,11.536675048828124,-0.5664665930360555,0.13674889609217644,0.7917337305366993
1679441224964647200,11.546647216796876,-0.5898040678732097,0.15841244636774063,0.9851146144330502
1679441224974619000,11.556618896484375,-0.7400964822798967,0.22465280499458312,1.1177943613901733
1679441224984591000,11.566591064453124,-0.9177075501143932,0.27647826929986474,1.141174944716692
1679441224994564000,11.576564208984376,-1.0577285997450352,0.3240852391272783,1.129538867458701
1679441225004535800,11.586535888671875,-1.0911001234710216,0.3021153993815183,1.069120346853137
1679441225014508000,11.596508056640625,-0.8759282635271549,0.12154781982898712,0.9389023138344287
1679441225024479700,11.606479736328126,-0.6032412032037973,-0.1860673460125923,0.8052396933197975
1679441225034452000,11.616451904296875,-0.36289983069002624,-0.507128853404522,0.6964090239837766
1679441225044424000,11.626423828125,-0.18180194365307686,-0.755590404009819,0.6094371352344751
1679441225054396000,11.63639599609375,0.021088453801348803,-0.8833850092738866,0.5685092047795653
1679441225064368000,11.6463681640625,0.2545611095894128,-0.8750754460901021,0.5667278743207455
1679441225074339800,11.65633984375,0.4110352083057165,-0.7561854472935199,0.5440376113459467
1679441225084312000,11.66631201171875,0.1281562781833112,-0.6638280661135911,0.5158282926887273
1679441225094284000,11.676283935546875,-0.4045212963670492,-0.6687327892899513,0.4221206659436226
1679441225104256000,11.686256103515625,-0.8450245912194252,-0.7683709751278162,0.32593174377679823
1679441225114228000,11.69622802734375,-1.0693601469583809,-0.9547013559907674,0.21230916398912666
1679441225124200000,11.706199951171875,-1.1383943010222166,-1.1580278798401356,0.1175984976813197
1679441225134172000,11.716171875,-1.0316132576923818,-1.2848287978917359,0.09494768993407487
1679441225144144100,11.72614404296875,-0.7784247516304255,-1.096852987909317,0.2536132342800498
1679441225154116900,11.736116943359375,-0.4449152660757303,-0.7890034287899732,0.46134851448237896
1679441225164089000,11.746089111328125,0.009095745125412941,-0.3649199383407831,0.6423123998761177
1679441225174061000,11.75606103515625,0.4394914874613285,0.010921206986904144,0.7489718626528978
1679441225184033000,11.766032958984376,0.8759551515340804,0.35046412748694417,0.732357996982336
1679441225194005000,11.7760048828125,1.7926999940961599,0.7408376560360193,0.5682110986158252
1679441225203977000,11.78597705078125,6.419513991570472,1.3285843529880046,-0.2985039308860898
1679441225213949000,11.795948974609376,12.154364634269475,2.144810719746351,-1.121211768618226
1679441225223921200,11.805921142578125,7.560784797877073,2.138781376454234,-0.2922854947626591
1679441225233892900,11.815892822265624,2.9199393524408337,1.4008949714392422,0.0589683217972517
1679441225243865000,11.825864990234376,0.1528887145102024,0.4759989711254835,0.4680655477777123
1679441225253836800,11.8358369140625,-2.0154232923328874,-0.5549713855534791,0.7482640066444873
1679441225263809000,11.84580908203125,-2.8983225639164445,-1.3821680591374634,0.5809224038898945
1679441225273781000,11.855781005859376,-2.426128245770931,-1.8188140940397977,0.375901351082325
1679441225283753000,11.8657529296875,-1.2189243932209908,-2.005055043053627,0.26254794362485406
1679441225293725000,11.875724853515624,-0.38715105937123295,-2.069250159588456,0.12902853097319603
1679441225303697000,11.88569677734375,0.23360402708277106,-1.9874831460058688,-0.03123129682689905
1679441225313670000,11.895669921875,1.349228350957483,-1.7564590524137018,0.08167202877551316
1679441225323642000,11.90564208984375,1.1878816047035157,-1.2853402545452117,0.6880626359209417
1679441225333613800,11.91561376953125,-0.7892132721483707,-0.8704548005521296,0.7887514998555183
1679441225343586000,11.9255859375,-2.7517840952157973,-0.779457017287612,0.47080958578884596
1679441225353558000,11.93555810546875,-3.2082384079158306,-0.7822440176576375,0.6001940905928611
1679441225363530000,11.945530029296876,-2.397707914711535,-0.6285375570237636,0.8415408407568931
1679441225373502000,11.955501953125,-1.5270605141967535,-0.32979075729250906,0.5109627324789762
1679441225383474000,11.965473876953125,-0.7773816723182797,0.040513212174177166,-0.44670667953714727
1679441225393446000,11.97544580078125,0.6989274365454912,0.15012275692820548,-1.9643958465375004
1679441225403418000,11.985418212890625,1.1412591158688068,0.14704115752577782,-3.43679523461163
1679441225413389800,11.995389892578125,-0.003062310180068016,0.24956220532357692,-3.686531042936444
1679441225423362000,12.005362060546876,-1.485050341463089,0.3229384071797132,-3.178494134776294
1679441225433333800,12.015333740234375,-2.0714391940653325,0.21317571769058702,-2.114542276602238
1679441225443306000,12.025305908203125,-1.5486410623639821,-0.11113573140799998,-1.083335334688425
1679441225453278000,12.03527783203125,-0.85817311886698,-0.4970569567233324,-0.4798822422996163
1679441225463250000,12.04525,-0.9749404264211654,-0.7174754851490259,-0.21320888930782675
1679441225473223400,12.055223388671875,-0.8729983475551009,-0.7926321406811475,-0.17071604762375353
1679441225483195400,12.0651953125,-1.1554425395220518,-0.9101637106060981,-0.23828772791959343
1679441225493167400,12.07516748046875,-1.7884668865710496,-1.0732342119127511,-0.307935264641419
1679441225503139600,12.0851396484375,-1.6515519862622021,-1.3259493283092976,-0.18878763782195745
1679441225513111300,12.095111328125,-1.2799655757695436,-1.6392402016997336,-0.13122125524450093
1679441225523083500,12.10508349609375,-1.1201742422640324,-1.655368329679966,-0.4992959678217768
1679441225533055200,12.11505517578125,-1.1812860058307646,-1.1880763966232537,-0.9510025014728307
1679441225543027500,12.12502734375,-0.4213502660930156,-0.5955576629638671,-1.0403139390856027
1679441225552999400,12.13499951171875,0.7091361113488673,0.1687660825997591,-0.8740336819522082
1679441225562971400,12.144971435546875,0.6259826118439435,1.2059773794949054,-1.0588399219878017
1679441225572943400,12.154943359375,0.18649755412340163,2.144225028812885,-1.4917622601918876
1679441225582915300,12.164915283203126,-0.32306291034221646,2.870748912814259,-1.266073828539252
1679441225592887300,12.17488720703125,-0.7727250786840916,2.991668956133723,-0.5168105817243457
1679441225602859500,12.184859619140624,-1.5105658909916877,2.605571789729595,0.23412439769506452
1679441225612831200,12.194831298828126,-0.5377957943469286,1.7861264609247445,0.9442075806356965
1679441225622803500,12.204803466796875,-0.002376666003465652,0.8024965320914983,1.005807712241262
1679441225632776400,12.2147763671875,-1.1009802969723939,-0.06349602835476398,0.2791044530849904
1679441225642748400,12.22474853515625,-1.1884610120266674,-0.48653322462141513,-0.413563630804792
1679441225652720400,12.234720458984375,-0.6427361782461405,-0.695662297269702,-0.8306750172190368
1679441225662692400,12.2446923828125,-0.3116892834126949,-0.5814303534120321,-0.8983170593373477
1679441225672664300,12.254664306640626,-0.3396060488641262,-0.22028525743484495,-0.9588418167963624
1679441225682636500,12.264636474609375,-0.03329495135843753,0.5026069920659065,-1.002225469840318
1679441225692608300,12.274608154296875,-0.25769933454990385,1.5565946517169476,-0.6855223037883639
1679441225702580500,12.28458056640625,-0.015543606090545654,2.557766082459688,-0.297009600675106
1679441225712552200,12.29455224609375,0.25211013624072076,3.293039090105891,0.060260845825821155
1679441225722524400,12.3045244140625,0.3994453082770109,3.4875247203737496,0.6562738513417542
1679441225732496400,12.314496337890626,0.3262310189843178,3.059855772653222,0.8813745462343097
1679441225742468400,12.32446826171875,0.055908934226632116,2.197495431229472,0.8667768426917493
1679441225752440600,12.334440673828125,0.6205974116742611,1.145814879477024,1.1345376986593008
1679441225762412300,12.344412353515626,1.5253917042016982,-0.025328502523899076,1.8222933144576847
1679441225772384500,12.354384521484375,2.262071656036377,-1.2801988000035285,2.3049587577350437
1679441225782356500,12.3643564453125,2.202376189008355,-1.9159397125348447,2.0564847860395905
1679441225792328400,12.374328369140626,2.091126475831866,-1.4443866149023175,1.8353223073787985
1679441225802301400,12.384301513671875,2.346292492511868,-0.2928989504858851,1.813654080928117
1679441225812273400,12.3942734375,2.328503153321147,0.9062053283691406,2.035319394544512
1679441225822245400,12.404245361328124,1.537746158862114,1.2349126743391154,2.4219002528123554
1679441225832217300,12.41421728515625,1.2626619742691516,0.6882707257136702,2.580573249812424
1679441225842189300,12.424189208984375,2.000646578961611,0.49241965231150386,2.3885155773438513
1679441225852161300,12.434161376953124,1.4888310290455817,0.688612378758192,1.145689791792631
1679441225862133500,12.444133544921876,0.9992518608570098,0.6446408428236842,-0.3258915578968823
1679441225872105500,12.45410546875,1.1991232758164405,0.7127519637584686,-0.8337139465235173
1679441225882077400,12.464077392578124,0.7370739195883274,0.8623080267146229,-1.0383234959207475
